"Time (s)","Gyroscope x (rad/s)","Gyroscope y (rad/s)","Gyroscope z (rad/s)"
3.181100100E-2,4.795292020E-2,-4.810563847E-2,4.520402849E-2
4.181100100E-2,4.046982154E-2,-5.650503561E-2,6.215553731E-2
5.181100100E-2,1.023199316E-2,-4.276056774E-3,6.811147183E-2
6.181100100E-2,-7.941247895E-3,1.771509275E-2,6.795875728E-2
7.181100100E-2,-2.611448988E-2,3.481931984E-2,7.147123665E-2
8.181100100E-2,-2.977968007E-2,3.115412779E-2,7.024950534E-2
9.181100100E-2,-2.977968007E-2,3.237585723E-2,6.658431143E-2
1.018110010E-1,-2.611448988E-2,2.993239649E-2,5.681046844E-2
1.118110010E-1,-1.634064503E-2,-6.566801574E-3,3.375030309E-2
1.218110010E-1,-7.788531948E-3,-3.207042441E-2,2.412917651E-2
1.318110010E-1,-4.581489484E-4,-1.756237634E-2,2.046398632E-2
1.418110010E-1,4.428773187E-3,1.023199316E-2,2.412917651E-2
1.518110010E-1,5.650503561E-3,1.389718428E-2,2.168571576E-2
1.618110010E-1,3.359758761E-3,2.122756653E-2,1.679879427E-2
1.718110010E-1,9.162978968E-4,4.062253982E-2,2.412917651E-2
1.818110010E-1,4.581489135E-3,3.329215571E-2,2.168571576E-2
1.918110010E-1,9.162978968E-4,3.817907721E-2,3.023782931E-2
2.018110010E-1,-3.054326226E-4,3.573561832E-2,3.145955876E-2
2.118110010E-1,-6.414085161E-3,3.817907721E-2,3.497203439E-2
2.218110010E-1,-8.857546374E-3,5.283984542E-2,4.230241850E-2
2.318110010E-1,-1.007927675E-2,4.077525437E-2,4.108068720E-2
2.418110010E-1,-1.252273750E-2,5.039638281E-2,4.230241850E-2
2.518110010E-1,-1.130100712E-2,5.772676691E-2,4.596760869E-2
2.618110010E-1,1.878410578E-2,-2.733621933E-2,3.405573592E-2
2.718110010E-1,3.207042441E-2,-7.834346592E-2,2.443460934E-2
2.818110010E-1,3.940080851E-2,-8.078692853E-2,1.832595654E-2
2.918110010E-1,4.917465150E-2,-6.643159688E-2,1.466076635E-2
3.018110010E-1,5.543602258E-2,-4.214970022E-2,5.039638374E-3
3.118110010E-1,6.169738993E-2,-3.497203439E-2,-3.512475174E-3
3.218110010E-1,8.109235764E-2,-6.658431143E-2,-1.313360315E-2
3.318110010E-1,7.742717117E-2,-5.451972410E-2,-3.359758761E-3
3.418110010E-1,7.269296050E-2,7.330383174E-3,-8.399397135E-3
3.518110010E-1,7.528914511E-2,3.161227703E-2,-1.450804994E-2
3.618110010E-1,7.528914511E-2,3.894266114E-2,-1.328631863E-2
3.718110010E-1,7.162395120E-2,3.649919853E-2,-1.328631863E-2
3.818110010E-1,6.551529467E-2,3.283400834E-2,-9.621127509E-3
3.918110010E-1,6.185010448E-2,1.954768784E-2,-5.955935922E-3
4.018110010E-1,5.940664560E-2,1.114829071E-2,-2.290744567E-3
4.118110010E-1,5.314527452E-2,-4.581489135E-3,4.886921961E-3
4.218110010E-1,5.070181563E-2,-1.191187184E-2,6.108652335E-3
4.318110010E-1,4.825835302E-2,-1.069014147E-2,8.552113548E-3
4.418110010E-1,5.070181563E-2,-1.191187184E-2,8.552113548E-3
4.518110010E-1,5.314527452E-2,-9.468411095E-3,8.552113548E-3
4.618110010E-1,5.803219974E-2,-9.468411095E-3,8.552113548E-3
4.718110010E-1,6.047565863E-2,-1.313360315E-2,9.926560335E-3
4.818110010E-1,5.925392732E-2,-2.153299935E-2,7.483099122E-3
4.918110010E-1,5.787948146E-2,-3.008511290E-2,6.261368748E-3
5.018110010E-1,5.665775016E-2,-3.497203439E-2,7.483099122E-3
5.118110010E-1,4.948008433E-2,-3.481931984E-2,6.108652335E-3
5.218110010E-1,4.825835302E-2,-3.237585723E-2,2.443460980E-3
5.318110010E-1,4.703662544E-2,-3.115412779E-2,2.443460980E-3
5.418110010E-1,4.581489414E-2,-2.641992271E-2,3.665191587E-3
5.518110010E-1,4.459316283E-2,-2.641992271E-2,4.886921961E-3
5.618110010E-1,4.337143153E-2,-2.764165215E-2,6.108652335E-3
5.718110010E-1,4.092797264E-2,-2.871066704E-2,4.886921961E-3
5.818110010E-1,3.848451003E-2,-2.626720630E-2,1.221730490E-3
5.918110010E-1,3.619376570E-2,-1.298088674E-2,-2.443460980E-3
6.018110010E-1,3.252857551E-2,-1.985311974E-3,-2.443460980E-3
6.118110010E-1,2.901609987E-2,7.635815535E-3,-5.039638374E-3
6.218110010E-1,2.657263726E-2,8.857546374E-3,-5.039638374E-3
6.318110010E-1,2.412917651E-2,1.007927675E-2,-3.817907767E-3
6.418110010E-1,2.535090782E-2,1.863138936E-2,-2.596177394E-3
6.518110010E-1,2.901609987E-2,3.436116874E-2,2.290744567E-3
6.618110010E-1,3.023782931E-2,4.642575979E-2,7.177666761E-3
6.718110010E-1,1.572977938E-2,4.657847434E-2,7.024950348E-3
6.818110010E-1,3.512475174E-3,3.573561832E-2,9.468411095E-3
6.918110010E-1,3.359758761E-3,2.962696366E-2,8.246680722E-3
7.018110010E-1,2.290744567E-3,2.962696366E-2,8.246680722E-3
7.118110010E-1,-2.596177394E-3,3.329215571E-2,4.581489135E-3
7.218110010E-1,-3.817907767E-3,3.573561832E-2,7.024950348E-3
7.318110010E-1,-5.039638374E-3,3.207042441E-2,5.803219974E-3
7.418110010E-1,-1.527163113E-4,2.840523422E-2,7.024950348E-3
7.518110010E-1,2.138028387E-3,2.718350291E-2,9.468411095E-3
7.618110010E-1,7.024950348E-3,1.511891466E-2,2.046398632E-2
7.718110010E-1,1.542434748E-2,6.566801574E-3,2.901609987E-2
7.818110010E-1,2.138028294E-2,4.123340361E-3,3.283400834E-2
7.918110010E-1,2.138028294E-2,-1.985311974E-3,3.161227703E-2
8.018110010E-1,2.382374369E-2,-3.207042580E-3,2.794708498E-2
8.118110010E-1,3.115412779E-2,4.123340361E-3,2.672535367E-2
8.218110010E-1,3.604105115E-2,1.374446787E-2,2.306016348E-2
8.318110010E-1,3.985895589E-2,2.458732575E-2,2.061670274E-2
8.418110010E-1,4.474587739E-2,3.298672289E-2,1.695151068E-2
8.518110010E-1,4.841107130E-2,3.787364438E-2,9.773843922E-3
8.618110010E-1,5.574145541E-2,3.054326214E-2,1.221730490E-3
8.718110010E-1,6.551529467E-2,2.076941915E-2,-8.399397135E-3
8.818110010E-1,7.040221989E-2,1.588249579E-2,-1.450804994E-2
8.918110010E-1,8.246681094E-2,-0.000000000E0,-2.046398632E-2
9.018110010E-1,8.139779419E-2,1.221730490E-3,-2.412917651E-2
9.118110010E-1,9.224065393E-2,2.443460980E-3,-2.290744707E-2
9.218110010E-1,9.346238524E-2,-0.000000000E0,-2.779436857E-2
9.318110010E-1,9.834930301E-2,-1.527163113E-4,-2.901609987E-2
9.418110010E-1,1.032362282E-1,-1.466076635E-2,-2.519819140E-2
9.518110010E-1,1.044579595E-1,-2.076941915E-2,-2.886338346E-2
9.618110010E-1,1.055269688E-1,-2.672535367E-2,-2.641992271E-2
9.718110010E-1,1.043052375E-1,-3.405573592E-2,-2.764165215E-2
9.818110010E-1,1.006400511E-1,-2.672535367E-2,-2.641992271E-2
9.918110010E-1,9.590584040E-2,-2.672535367E-2,-2.412917651E-2
1.001811001E0,9.575312585E-2,-3.039054573E-2,-2.519819140E-2
1.011811001E0,9.346238524E-2,-3.283400834E-2,-3.008511290E-2
1.021811001E0,9.224065393E-2,-3.405573592E-2,-3.497203439E-2
1.031811001E0,9.101892263E-2,-3.634648025E-2,-3.741549700E-2
1.041811001E0,9.468411654E-2,-3.772092983E-2,-4.596760869E-2
1.051811001E0,9.957103431E-2,-3.405573592E-2,-5.085453019E-2
1.061811001E0,9.728029370E-2,-3.283400834E-2,-5.451972410E-2
1.071811001E0,9.712757170E-2,-4.367686436E-2,-5.329799280E-2
1.081811001E0,9.346238524E-2,-6.307183951E-2,-5.574145541E-2
1.091811001E0,8.735372871E-2,-7.880161703E-2,-5.085453019E-2
1.101811001E0,8.246681094E-2,-8.735372871E-2,-5.085453019E-2
1.111811001E0,7.864890248E-2,-9.086620808E-2,-4.963280261E-2
1.121811001E0,7.513642311E-2,-8.231408894E-2,-5.085453019E-2
1.131811001E0,7.635815442E-2,-6.414084882E-2,-4.841107130E-2
1.141811001E0,7.406741381E-2,-5.329799280E-2,-4.856378585E-2
1.151811001E0,7.040221989E-2,-3.878994286E-2,-4.489859566E-2
1.161811001E0,6.551529467E-2,-2.779436857E-2,-4.245513305E-2
1.171811001E0,6.185010448E-2,-2.412917651E-2,-3.878994286E-2
1.181811001E0,5.329799280E-2,-2.168571576E-2,-3.283400834E-2
1.191811001E0,4.230241850E-2,-2.641992271E-2,-2.672535367E-2
1.201811001E0,3.741549700E-2,-3.481931984E-2,-2.199114859E-2
1.211811001E0,2.641992271E-2,-4.199698567E-2,-2.076941915E-2
1.221811001E0,1.542434748E-2,-5.039638281E-2,-1.954768784E-2
1.231811001E0,9.315694682E-3,-5.161811411E-2,-1.970040426E-2
1.241811001E0,9.468411095E-3,-3.711006418E-2,-1.725694351E-2
1.251811001E0,8.246680722E-3,-2.733621933E-2,-1.359175146E-2
1.261811001E0,8.246680722E-3,-1.771509275E-2,-1.114829071E-2
1.271811001E0,-3.054326226E-4,-1.389718428E-2,-7.483099122E-3
1.281811001E0,-6.414085161E-3,-1.389718428E-2,-3.054326226E-4
1.291811001E0,-1.496619824E-2,-1.878410578E-2,9.162978968E-4
1.301811001E0,-2.229658142E-2,-2.840523422E-2,5.803219974E-3
1.311811001E0,-3.084869497E-2,-3.558290005E-2,1.053742506E-2
1.321811001E0,-3.817907721E-2,-4.153883830E-2,1.298088674E-2
1.331811001E0,-4.673119262E-2,-4.871650413E-2,1.908953860E-2
1.341811001E0,-5.406157300E-2,-4.871650413E-2,2.382374369E-2
1.351811001E0,-6.139195710E-2,-4.749477282E-2,2.871066704E-2
1.361811001E0,-6.872233748E-2,-4.978551716E-2,2.993239649E-2
1.371811001E0,-7.360926270E-2,-5.711590126E-2,3.115412779E-2
1.381811001E0,-7.727445662E-2,-6.551529467E-2,2.871066704E-2
1.391811001E0,-7.605272532E-2,-6.551529467E-2,2.626720630E-2
1.401811001E0,-6.505715102E-2,-5.345070735E-2,2.993239649E-2
1.411811001E0,-7.238753140E-2,-4.016438872E-2,3.222314268E-2
1.421811001E0,-7.849618047E-2,-3.649919853E-2,3.344487399E-2
1.431811001E0,-8.582656831E-2,-4.123340547E-2,4.199698567E-2
1.441811001E0,-9.437867999E-2,-4.841107130E-2,5.283984542E-2
1.451811001E0,-1.053742543E-1,-5.681046844E-2,5.283984542E-2
1.461811001E0,-1.139263660E-1,-6.398813426E-2,6.139195710E-2
1.471811001E0,-1.139263660E-1,-5.681046844E-2,6.505715102E-2
1.481811001E0,-1.128573567E-1,-5.558873713E-2,6.979135424E-2
1.491811001E0,-1.091921628E-1,-6.047565863E-2,7.483099401E-2
1.501811001E0,-9.834930301E-2,-6.291911751E-2,7.849618047E-2
1.511811001E0,-9.224065393E-2,-5.925392732E-2,8.338310570E-2
1.521811001E0,-8.491026610E-2,-6.291911751E-2,8.460483700E-2
1.531811001E0,-8.139779419E-2,-6.062837690E-2,8.949175477E-2
1.541811001E0,-7.895433158E-2,-6.307183951E-2,9.071348608E-2
1.551811001E0,-7.528914511E-2,-6.673702598E-2,8.475755155E-2
1.561811001E0,-7.406741381E-2,-7.040221989E-2,7.987063378E-2
1.571811001E0,-6.918048859E-2,-7.635815442E-2,7.131851465E-2
1.581811001E0,-6.185010448E-2,-7.773260027E-2,6.536258012E-2
1.591811001E0,-5.696318299E-2,-8.628471941E-2,5.803219974E-2
1.601811001E0,-3.985895589E-2,-8.750644326E-2,5.085453019E-2
1.611811001E0,-3.130684420E-2,-9.972374886E-2,3.985895589E-2
1.621811001E0,-3.619376570E-2,-1.117883399E-1,3.985895589E-2
1.631811001E0,-3.604105115E-2,-9.483683109E-2,1.191187184E-2
1.641811001E0,-3.054326167E-3,-1.145372353E-2,4.734205827E-2
1.651811001E0,-6.108652451E-4,-4.902193695E-2,3.512475267E-2
1.661811001E0,1.404990070E-2,-5.879577994E-2,1.695151068E-2
1.671811001E0,3.222314268E-2,-8.078692853E-2,-4.886921961E-3
1.681811001E0,5.665775016E-2,-1.064432710E-1,-2.412917651E-2
1.691811001E0,7.254024595E-2,-1.017090604E-1,-3.390302137E-2
1.701811001E0,8.246681094E-2,-7.757988572E-2,-4.474587739E-2
1.711811001E0,9.712757170E-2,-5.100724846E-2,-5.085453019E-2
1.721811001E0,1.252273768E-1,-3.543018550E-2,-5.803219974E-2
1.731811001E0,1.398881376E-1,-3.558290005E-2,-6.643159688E-2
1.741811001E0,1.496619880E-1,-4.657847434E-2,-7.727445662E-2
1.751811001E0,1.643227488E-1,-3.817907721E-2,-8.827003092E-2
1.761811001E0,1.632537395E-1,-1.389718428E-2,-9.071348608E-2
1.771811001E0,1.656972021E-1,1.832595794E-3,-9.193521738E-2
1.781811001E0,1.572978050E-1,2.367102914E-2,-8.949175477E-2
1.791811001E0,1.524108797E-1,3.100141138E-2,-8.720101416E-2
1.801811001E0,1.450804919E-1,3.344487399E-2,-8.353582025E-2
1.811811001E0,1.340849251E-1,2.260201424E-2,-7.864890248E-2
1.821811001E0,1.182024255E-1,9.468411095E-3,-7.269296050E-2
1.831811001E0,9.743300825E-2,-2.596177394E-3,-6.307183951E-2
1.841811001E0,8.277224004E-2,-9.773843922E-3,-5.467243865E-2
1.851811001E0,6.566801667E-2,-1.802052557E-2,-4.489859566E-2
1.861811001E0,4.856378585E-2,-1.802052557E-2,-3.772092983E-2
1.871811001E0,3.268129006E-2,-1.298088674E-2,-2.932153270E-2
1.881811001E0,1.802052557E-2,-1.053742506E-2,-2.321287990E-2
1.891811001E0,-1.527163113E-4,-5.497787148E-3,-1.481348183E-2
1.901811001E0,-1.970040426E-2,-6.566801574E-3,-7.635815535E-3
1.911811001E0,-3.924809024E-2,-8.857546374E-3,-2.901609987E-3
1.921811001E0,-5.253441259E-2,-6.414085161E-3,3.054326167E-3
1.931811001E0,-6.230825558E-2,-3.817907767E-3,7.941247895E-3
1.941811001E0,-7.330382615E-2,-5.039638374E-3,1.282817032E-2
1.951811001E0,-7.819075137E-2,-7.330383174E-3,1.634064503E-2
1.961811001E0,-8.429940045E-2,-6.108652335E-3,2.122756653E-2
1.971811001E0,-9.162978828E-2,-8.552113548E-3,2.489275858E-2
1.981811001E0,-1.001819000E-1,-8.399397135E-3,2.718350291E-2
1.991811001E0,-1.038470939E-1,-8.399397135E-3,2.962696366E-2
2.001811001E0,-1.111774743E-1,-7.177666761E-3,3.451388702E-2
2.011811001E0,-1.148426682E-1,-7.024950348E-3,4.062253982E-2
2.021811001E0,-1.160643995E-1,-7.024950348E-3,4.657847434E-2
2.031811001E0,-1.137736514E-1,-9.468411095E-3,5.024366826E-2
2.041811001E0,-1.076650023E-1,-9.621127509E-3,5.283984542E-2
2.051811001E0,-9.911288321E-2,-1.572977938E-2,5.161811411E-2
2.061811001E0,-8.827003092E-2,-1.817324013E-2,5.161811411E-2
2.071811001E0,-7.483099401E-2,-2.306016348E-2,4.566217586E-2
2.081811001E0,-6.017022580E-2,-2.565634064E-2,3.848451003E-2
2.091811001E0,-4.688390717E-2,-3.054326214E-2,3.359758854E-2
2.101811001E0,-3.711006418E-2,-3.543018550E-2,2.641992271E-2
2.111811001E0,-2.367102914E-2,-3.680463135E-2,1.924225502E-2
2.121811001E0,-9.010262787E-3,-3.940080851E-2,1.191187184E-2
2.131811001E0,7.635815418E-4,-3.817907721E-2,4.734205548E-3
2.141811001E0,8.093964309E-3,-3.466660157E-2,-1.374446787E-3
2.151811001E0,1.298088674E-2,-2.977968007E-2,-7.483099122E-3
2.161811001E0,1.679879427E-2,-2.138028294E-2,-1.114829071E-2
2.171811001E0,1.924225502E-2,-1.282817032E-2,-1.237002108E-2
2.181811001E0,1.679879427E-2,-3.207042580E-3,-1.114829071E-2
2.191811001E0,1.313360315E-2,2.901609987E-3,-1.237002108E-2
2.201811001E0,5.955935922E-3,9.010262787E-3,-1.114829071E-2
2.211811001E0,1.069014193E-3,1.267545391E-2,-1.359175146E-2
2.221811001E0,-6.108652335E-3,2.000583708E-2,-1.374446787E-2
2.231811001E0,-1.343903504E-2,2.611448988E-2,-1.252273750E-2
2.241811001E0,-1.832595654E-2,2.977968007E-2,-1.252273750E-2
2.251811001E0,-2.565634064E-2,2.626720630E-2,-1.252273750E-2
2.261811001E0,-2.076941915E-2,2.367102914E-2,-1.130100712E-2
2.271811001E0,-2.076941915E-2,2.015855350E-2,-1.130100712E-2
2.281811001E0,-1.710422710E-2,2.000583708E-2,-1.007927675E-2
2.291811001E0,-1.343903504E-2,2.000583708E-2,-1.130100712E-2
2.301811001E0,-9.926560335E-3,1.756237634E-2,-1.130100712E-2
2.311811001E0,-5.039638374E-3,1.267545391E-2,-8.857546374E-3
2.321811001E0,-2.596177394E-3,1.145372353E-2,-7.635815535E-3
2.331811001E0,-1.527163113E-4,1.145372353E-2,-8.704829961E-3
2.341811001E0,4.734205548E-3,7.788531948E-3,-7.483099122E-3
2.351811001E0,8.246680722E-3,5.345070735E-3,-7.483099122E-3
2.361811001E0,1.069014147E-2,1.679879380E-3,-6.261368748E-3
2.371811001E0,1.191187184E-2,-7.941247895E-3,-3.817907767E-3
2.381811001E0,1.420261711E-2,-1.527163107E-2,-1.374446787E-3
2.391811001E0,1.420261711E-2,-2.260201424E-2,1.069014193E-3
2.401811001E0,1.542434748E-2,-2.489275858E-2,3.512475174E-3
2.411811001E0,1.542434748E-2,-2.855795063E-2,5.955935922E-3
2.421811001E0,1.298088674E-2,-2.855795063E-2,8.399397135E-3
2.431811001E0,1.175915636E-2,-2.733621933E-2,1.084285788E-2
2.441811001E0,9.315694682E-3,-2.000583708E-2,8.399397135E-3
2.451811001E0,9.315694682E-3,-1.878410578E-2,1.084285788E-2
2.461811001E0,6.872233935E-3,-2.122756653E-2,1.206458826E-2
2.471811001E0,5.650503561E-3,-2.367102914E-2,1.206458826E-2
2.481811001E0,3.207042580E-3,-2.489275858E-2,1.328631863E-2
2.491811001E0,7.635815418E-4,-2.244929783E-2,1.557706390E-2
2.501811001E0,-4.123340361E-3,-2.244929783E-2,2.046398632E-2
2.511811001E0,-5.345070735E-3,-2.229658142E-2,2.168571576E-2
2.521811001E0,-1.023199316E-2,-2.596177347E-2,2.535090782E-2
2.531811001E0,-1.267545391E-2,-2.718350291E-2,2.535090782E-2
2.541811001E0,-1.756237634E-2,-2.229658142E-2,2.657263726E-2
2.551811001E0,-2.000583708E-2,-1.740965992E-2,2.641992271E-2
2.561811001E0,-2.229658142E-2,-5.345070735E-3,2.641992271E-2
2.571811001E0,-2.351831272E-2,5.650503561E-3,2.519819140E-2
2.581811001E0,-2.840523422E-2,1.420261711E-2,2.519819140E-2
2.591811001E0,-2.947424725E-2,1.893682219E-2,2.519819140E-2
2.601811001E0,-3.191770986E-2,2.504547499E-2,2.519819140E-2
2.611811001E0,-3.191770986E-2,2.504547499E-2,2.275473066E-2
2.621811001E0,-3.069597855E-2,2.626720630E-2,2.153299935E-2
2.631811001E0,-2.703078650E-2,3.237585723E-2,1.908953860E-2
2.641811001E0,-2.336559631E-2,3.588833287E-2,2.031126991E-2
2.651811001E0,-1.603521220E-2,3.100141138E-2,1.786780916E-2
2.661811001E0,-1.359175146E-2,2.977968007E-2,1.664607786E-2
2.671811001E0,-1.114829071E-2,2.733621933E-2,1.679879427E-2
2.681811001E0,-9.926560335E-3,2.855795063E-2,1.679879427E-2
2.691811001E0,-8.704829961E-3,2.977968007E-2,1.679879427E-2
2.701811001E0,-9.926560335E-3,2.977968007E-2,1.802052557E-2
2.711811001E0,-6.414085161E-3,3.222314268E-2,1.924225502E-2
2.721811001E0,-5.039638374E-3,3.573561832E-2,1.557706390E-2
2.731811001E0,-5.039638374E-3,3.817907721E-2,1.313360315E-2
2.741811001E0,1.069014193E-3,3.817907721E-2,1.069014147E-2
2.751811001E0,3.512475174E-3,4.184427112E-2,7.024950348E-3
2.761811001E0,5.955935922E-3,4.535674304E-2,3.359758761E-3
2.771811001E0,8.399397135E-3,5.146539584E-2,3.359758761E-3
2.781811001E0,9.621127509E-3,5.513058975E-2,2.138028387E-3
2.791811001E0,8.399397135E-3,6.108652428E-2,3.359758761E-3
2.801811001E0,7.330383174E-3,6.841690838E-2,4.581489135E-3
2.811811001E0,7.330383174E-3,7.330382615E-2,7.024950348E-3
2.821811001E0,3.665191587E-3,7.819075137E-2,7.024950348E-3
2.831811001E0,4.886921961E-3,7.819075137E-2,9.468411095E-3
2.841811001E0,-1.221730490E-3,7.330382615E-2,1.069014147E-2
2.851811001E0,-2.443460980E-3,6.841690838E-2,8.246680722E-3
2.861811001E0,-1.527163113E-4,6.123924255E-2,9.468411095E-3
2.871811001E0,2.290744567E-3,5.513058975E-2,7.024950348E-3
2.881811001E0,3.512475174E-3,5.390885845E-2,7.024950348E-3
2.891811001E0,5.955935922E-3,4.902193695E-2,5.803219974E-3
2.901811001E0,5.955935922E-3,4.535674304E-2,4.581489135E-3
2.911811001E0,4.734205548E-3,4.657847434E-2,4.581489135E-3
2.921811001E0,4.734205548E-3,4.657847434E-2,5.803219974E-3
2.931811001E0,5.955935922E-3,5.390885845E-2,7.024950348E-3
2.941811001E0,7.177666761E-3,6.001751125E-2,9.468411095E-3
2.951811001E0,8.399397135E-3,5.757404864E-2,5.803219974E-3
2.961811001E0,1.084285788E-2,5.742133409E-2,-1.527163084E-3
2.971811001E0,1.817324013E-2,5.742133409E-2,-5.039638374E-3
2.981811001E0,2.428189293E-2,5.742133409E-2,-1.237002108E-2
2.991811001E0,3.161227703E-2,6.093380973E-2,-1.359175146E-2
3.001811001E0,3.039054573E-2,6.337726861E-2,-1.237002108E-2
3.011811001E0,2.672535367E-2,5.619960278E-2,-1.359175146E-2
3.021811001E0,2.550362423E-2,5.253441259E-2,-1.114829071E-2
3.031811001E0,2.199114859E-2,5.986479297E-2,-9.926560335E-3
3.041811001E0,1.832595654E-2,6.352998316E-2,-1.114829071E-2
3.051811001E0,9.773843922E-3,5.986479297E-2,-8.704829961E-3
3.061811001E0,6.108652335E-3,5.864306539E-2,-7.635815535E-3
3.071811001E0,-1.221730490E-3,5.513058975E-2,-5.192354787E-3
3.081811001E0,-3.665191587E-3,5.390885845E-2,-5.192354787E-3
3.091811001E0,-1.466076635E-2,4.795292020E-2,-3.054326226E-4
3.101811001E0,-1.954768784E-2,3.955352306E-2,3.207042580E-3
3.111811001E0,-2.458732575E-2,2.977968007E-2,6.872233935E-3
3.121811001E0,-3.436116874E-2,2.138028294E-2,9.315694682E-3
3.131811001E0,-3.680463135E-2,1.664607786E-2,1.053742506E-2
3.141811001E0,-4.046982154E-2,1.175915636E-2,1.175915636E-2
3.151811001E0,-4.046982154E-2,1.175915636E-2,1.298088674E-2
3.161811001E0,-3.924809024E-2,1.298088674E-2,1.420261711E-2
3.171811001E0,-4.046982154E-2,2.153299935E-2,1.649336144E-2
3.181811001E0,-4.169155285E-2,2.504547499E-2,1.771509275E-2
3.191811001E0,-4.276056588E-2,2.993239649E-2,1.893682219E-2
3.201811001E0,-4.520402849E-2,3.970624134E-2,2.015855350E-2
3.211811001E0,-4.398229718E-2,4.810563847E-2,2.015855350E-2
3.221811001E0,-4.398229718E-2,5.421429127E-2,2.138028294E-2
3.231811001E0,-4.016438872E-2,6.505715102E-2,1.282817032E-2
3.241811001E0,-4.138612002E-2,7.483099401E-2,4.276056774E-3
3.251811001E0,-3.298672289E-2,7.712173462E-2,2.015855350E-2
3.261811001E0,-1.710422710E-2,9.040805697E-2,3.252857551E-2
3.271811001E0,-1.237002108E-2,9.162978828E-2,3.863722831E-2
3.281811001E0,-5.039638374E-3,9.285151958E-2,3.863722831E-2
3.291811001E0,-3.817907767E-3,6.979135424E-2,3.375030309E-2
3.301811001E0,3.359758761E-3,4.795292020E-2,3.145955876E-2
3.311811001E0,1.221730490E-3,1.072068512E-1,1.786780916E-2
3.321811001E0,2.214386500E-2,1.664607823E-1,2.046398632E-2
3.331811001E0,1.725694351E-2,1.580613852E-1,1.679879427E-2
3.341811001E0,1.802052557E-2,6.597344577E-2,2.168571576E-2
3.351811001E0,2.153299935E-2,-1.282817032E-2,1.450804994E-2
3.361811001E0,2.031126991E-2,-3.222314268E-2,3.512475174E-3
3.371811001E0,2.168571576E-2,-1.771509275E-2,-1.099557430E-2
3.381811001E0,2.076941915E-2,3.436116874E-2,-3.054326214E-2
3.391811001E0,2.092213556E-2,6.704246253E-2,-4.413501546E-2
3.401811001E0,1.985312067E-2,8.032877743E-2,-5.024366826E-2
3.411811001E0,2.107485011E-2,8.032877743E-2,-4.902193695E-2
3.421811001E0,2.458732575E-2,7.910704613E-2,-4.169155285E-2
3.431811001E0,2.703078650E-2,7.666359097E-2,-3.680463135E-2
3.441811001E0,1.970040426E-2,5.864306539E-2,-3.680463135E-2
3.451811001E0,1.588249579E-2,4.169155285E-2,-3.802636266E-2
3.461811001E0,9.773843922E-3,3.313944116E-2,-3.313944116E-2
3.471811001E0,9.773843922E-3,3.313944116E-2,-2.703078650E-2
3.481811001E0,5.955935922E-3,1.145372353E-2,-2.092213556E-2
3.491811001E0,3.512475174E-3,1.023199316E-2,-1.114829071E-2
3.501811001E0,1.069014193E-3,1.756237634E-2,-3.970623948E-3
3.511811001E0,-5.039638374E-3,1.267545391E-2,-5.192354787E-3
3.521811001E0,-7.483099122E-3,1.389718428E-2,-7.635815535E-3
3.531811001E0,-9.773843922E-3,2.855795063E-2,-1.007927675E-2
3.541811001E0,-1.099557430E-2,3.940080851E-2,-1.618792862E-2
3.551811001E0,-1.466076635E-2,3.817907721E-2,-1.863138936E-2
3.561811001E0,-1.466076635E-2,1.756237634E-2,-1.130100712E-2
3.571811001E0,-7.635815535E-3,-5.345070735E-3,3.359758761E-3
3.581811001E0,-7.483099122E-3,1.282817032E-2,-3.054326226E-4
3.591811001E0,-6.261368748E-3,2.611448988E-2,-2.748893574E-3
3.601811001E0,-7.483099122E-3,2.489275858E-2,-7.635815535E-3
3.611811001E0,-2.596177394E-3,2.000583708E-2,-1.130100712E-2
3.621811001E0,-2.596177394E-3,1.389718428E-2,-1.252273750E-2
3.631811001E0,-1.374446787E-3,3.054326167E-3,-1.603521220E-2
3.641811001E0,1.069014193E-3,5.345070735E-3,-1.481348183E-2
3.651811001E0,4.734205548E-3,1.389718428E-2,-9.926560335E-3
3.661811001E0,7.177666761E-3,1.878410578E-2,-3.817907767E-3
3.671811001E0,7.024950348E-3,1.389718428E-2,-1.374446787E-3
3.681811001E0,5.803219974E-3,1.832595794E-3,-1.527163113E-4
3.691811001E0,4.581489135E-3,1.832595794E-3,1.069014193E-3
3.701811001E0,3.359758761E-3,3.054326167E-3,2.290744567E-3
3.711811001E0,3.359758761E-3,6.566801574E-3,2.290744567E-3
3.721811001E0,3.359758761E-3,9.010262787E-3,-1.527163113E-4
3.731811001E0,3.359758761E-3,1.023199316E-2,-1.374446787E-3
3.741811001E0,3.359758761E-3,4.123340361E-3,-3.817907767E-3
3.751811001E0,5.803219974E-3,-1.832595794E-3,-5.039638374E-3
3.761811001E0,7.024950348E-3,-5.497787148E-3,-5.039638374E-3
3.771811001E0,8.246680722E-3,-5.497787148E-3,-7.483099122E-3
3.781811001E0,8.246680722E-3,-4.276056774E-3,-9.926560335E-3
3.791811001E0,9.468411095E-3,-4.276056774E-3,-9.926560335E-3
3.801811001E0,1.191187184E-2,-4.276056774E-3,-1.114829071E-2
3.811811001E0,1.313360315E-2,-3.207042580E-3,-1.114829071E-2
3.821811001E0,1.313360315E-2,-1.985311974E-3,-1.481348183E-2
3.831811001E0,1.313360315E-2,-7.635815418E-4,-1.481348183E-2
3.841811001E0,1.191187184E-2,-1.985311974E-3,-1.481348183E-2
3.851811001E0,1.084285788E-2,2.901609987E-3,-1.481348183E-2
3.861811001E0,8.399397135E-3,9.010262787E-3,-1.114829071E-2
3.871811001E0,5.955935922E-3,7.788531948E-3,-7.483099122E-3
3.881811001E0,5.955935922E-3,5.345070735E-3,-7.483099122E-3
3.891811001E0,2.290744567E-3,5.345070735E-3,-6.261368748E-3
3.901811001E0,2.138028387E-3,-6.108652451E-4,-5.039638374E-3
3.911811001E0,2.138028387E-3,-6.108652451E-4,-5.039638374E-3
3.921811001E0,2.138028387E-3,-6.108652451E-4,-6.261368748E-3
3.931811001E0,4.581489135E-3,6.108652451E-4,-6.261368748E-3
3.941811001E0,3.359758761E-3,6.108652451E-4,-2.596177394E-3
3.951811001E0,4.581489135E-3,4.123340361E-3,-3.817907767E-3
3.961811001E0,4.581489135E-3,4.123340361E-3,-6.261368748E-3
3.971811001E0,4.581489135E-3,4.123340361E-3,-5.039638374E-3
3.981811001E0,5.803219974E-3,-1.832595794E-3,-7.483099122E-3
3.991811001E0,7.024950348E-3,1.679879380E-3,-8.704829961E-3
4.001811001E0,9.468411095E-3,-7.635815418E-4,-9.926560335E-3
4.011811001E0,1.084285788E-2,5.345070735E-3,-1.237002108E-2
4.021811001E0,1.313360315E-2,2.901609987E-3,-1.237002108E-2
4.031811001E0,1.557706390E-2,2.901609987E-3,-1.359175146E-2
4.041811001E0,1.557706390E-2,-7.635815418E-4,-1.237002108E-2
4.051811001E0,1.557706390E-2,1.679879380E-3,-1.114829071E-2
4.061811001E0,1.557706390E-2,4.581489484E-4,-1.114829071E-2
4.071811001E0,1.435533352E-2,4.581489484E-4,-9.926560335E-3
4.081811001E0,1.557706390E-2,4.123340361E-3,-8.704829961E-3
4.091811001E0,1.435533352E-2,2.901609987E-3,-8.704829961E-3
4.101811001E0,1.313360315E-2,2.901609987E-3,-9.926560335E-3
4.111811001E0,1.313360315E-2,2.901609987E-3,-9.926560335E-3
4.121811001E0,1.435533352E-2,-1.985311974E-3,-8.704829961E-3
4.131811001E0,1.557706390E-2,-1.985311974E-3,-8.704829961E-3
4.141811001E0,1.435533352E-2,-5.497787148E-3,-6.261368748E-3
4.151811001E0,1.557706390E-2,-7.635815418E-4,-6.261368748E-3
4.161811001E0,1.679879427E-2,2.901609987E-3,-6.261368748E-3
4.171811001E0,1.557706390E-2,6.566801574E-3,-6.261368748E-3
4.181811001E0,1.435533352E-2,1.267545391E-2,-5.039638374E-3
4.191811001E0,1.069014147E-2,1.267545391E-2,-6.261368748E-3
4.201811001E0,9.621127509E-3,1.023199316E-2,-7.483099122E-3
4.211811001E0,8.399397135E-3,9.010262787E-3,-7.483099122E-3
4.221811001E0,7.177666761E-3,7.788531948E-3,-7.483099122E-3
4.231811001E0,7.177666761E-3,5.345070735E-3,-8.704829961E-3
4.241811001E0,7.177666761E-3,1.145372353E-2,-7.483099122E-3
4.251811001E0,5.955935922E-3,1.511891466E-2,-6.261368748E-3
4.261811001E0,5.955935922E-3,1.756237634E-2,-3.817907767E-3
4.271811001E0,4.734205548E-3,1.756237634E-2,-5.039638374E-3
4.281811001E0,4.734205548E-3,1.511891466E-2,-5.039638374E-3
4.291811001E0,5.955935922E-3,1.634064503E-2,-6.261368748E-3
4.301811001E0,8.399397135E-3,1.389718428E-2,-8.704829961E-3
4.311811001E0,1.206458826E-2,1.389718428E-2,-9.926560335E-3
4.321811001E0,1.450804994E-2,1.740965992E-2,-9.926560335E-3
4.331811001E0,1.572977938E-2,2.229658142E-2,-9.926560335E-3
4.341811001E0,1.695151068E-2,2.596177347E-2,-8.704829961E-3
4.351811001E0,1.572977938E-2,2.718350291E-2,-9.926560335E-3
4.361811001E0,1.450804994E-2,2.596177347E-2,-1.114829071E-2
4.371811001E0,1.328631863E-2,1.863138936E-2,-9.926560335E-3
4.381811001E0,1.084285788E-2,1.511891466E-2,-8.704829961E-3
4.391811001E0,1.328631863E-2,1.618792862E-2,-6.261368748E-3
4.401811001E0,1.084285788E-2,1.511891466E-2,-5.039638374E-3
4.411811001E0,9.468411095E-3,1.511891466E-2,-2.596177394E-3
4.421811001E0,9.468411095E-3,1.389718428E-2,-3.817907767E-3
4.431811001E0,8.399397135E-3,1.267545391E-2,-5.039638374E-3
4.441811001E0,7.177666761E-3,1.389718428E-2,-3.817907767E-3
4.451811001E0,9.621127509E-3,1.389718428E-2,-5.039638374E-3
4.461811001E0,8.399397135E-3,1.511891466E-2,-5.039638374E-3
4.471811001E0,8.399397135E-3,1.511891466E-2,-5.039638374E-3
4.481811001E0,9.621127509E-3,1.511891466E-2,-7.483099122E-3
4.491811001E0,9.621127509E-3,1.511891466E-2,-6.261368748E-3
4.501811001E0,9.621127509E-3,1.511891466E-2,-8.704829961E-3
4.511811001E0,4.734205548E-3,1.511891466E-2,-9.926560335E-3
4.521811001E0,3.512475174E-3,1.756237634E-2,-1.237002108E-2
4.531811001E0,1.069014193E-3,1.634064503E-2,-9.926560335E-3
4.541811001E0,1.069014193E-3,1.634064503E-2,-1.114829071E-2
4.551811001E0,2.290744567E-3,1.634064503E-2,-1.359175146E-2
4.561811001E0,3.512475174E-3,1.756237634E-2,-1.359175146E-2
4.571811001E0,7.177666761E-3,2.107485011E-2,-1.481348183E-2
4.581811001E0,1.206458826E-2,2.229658142E-2,-1.847867295E-2
4.591811001E0,1.817324013E-2,2.351831272E-2,-2.336559631E-2
4.601811001E0,1.817324013E-2,2.596177347E-2,-2.336559631E-2
4.611811001E0,1.817324013E-2,2.596177347E-2,-2.336559631E-2
4.621811001E0,1.572977938E-2,2.718350291E-2,-2.214386500E-2
4.631811001E0,1.328631863E-2,2.840523422E-2,-2.092213556E-2
4.641811001E0,1.084285788E-2,2.596177347E-2,-2.092213556E-2
4.651811001E0,1.221730467E-2,2.962696366E-2,-2.458732575E-2
4.661811001E0,1.343903504E-2,3.191770986E-2,-2.580905706E-2
4.671811001E0,1.954768784E-2,3.558290005E-2,-2.825251780E-2
4.681811001E0,2.443460934E-2,4.031710699E-2,-2.687807009E-2
4.691811001E0,2.687807009E-2,4.520402849E-2,-2.809980139E-2
4.701811001E0,2.932153270E-2,4.642575979E-2,-2.565634064E-2
4.711811001E0,3.283400834E-2,4.276056588E-2,-2.809980139E-2
4.721811001E0,3.298672289E-2,4.153883830E-2,-3.298672289E-2
4.731811001E0,3.054326214E-2,4.153883830E-2,-3.665191308E-2
4.741811001E0,3.298672289E-2,4.520402849E-2,-3.909537569E-2
4.751811001E0,3.176499158E-2,5.360342562E-2,-4.276056588E-2
4.761811001E0,3.420845419E-2,5.726861581E-2,-4.398229718E-2
4.771811001E0,3.543018550E-2,5.726861581E-2,-4.520402849E-2
4.781811001E0,3.436116874E-2,5.849034712E-2,-4.520402849E-2
4.791811001E0,3.665191308E-2,5.482515693E-2,-4.520402849E-2
4.801811001E0,3.787364438E-2,5.726861581E-2,-4.764748737E-2
4.811811001E0,4.169155285E-2,6.078109145E-2,-5.009094998E-2
4.821811001E0,4.413501546E-2,6.078109145E-2,-5.238169432E-2
4.831811001E0,4.780020565E-2,6.444628537E-2,-5.726861581E-2
4.841811001E0,5.268712714E-2,6.811147183E-2,-6.093380973E-2
4.851811001E0,5.635231733E-2,6.918048859E-2,-6.459899992E-2
4.861811001E0,5.879577994E-2,7.162395120E-2,-6.948592514E-2
4.871811001E0,5.757404864E-2,6.673702598E-2,-7.070764899E-2
4.881811001E0,5.879577994E-2,6.551529467E-2,-7.192938030E-2
4.891811001E0,6.123924255E-2,6.062837690E-2,-7.299839705E-2
4.901811001E0,6.368270516E-2,5.940664560E-2,-7.299839705E-2
4.911811001E0,6.734789163E-2,6.307183951E-2,-7.422012836E-2
4.921811001E0,6.856962293E-2,6.673702598E-2,-7.666359097E-2
4.931811001E0,7.223481685E-2,6.902777404E-2,-7.910704613E-2
4.941811001E0,7.345654815E-2,7.757988572E-2,-8.155050874E-2
4.951811001E0,7.590000331E-2,8.124507964E-2,-8.399397135E-2
4.961811001E0,7.971791178E-2,8.964447677E-2,-8.765916526E-2
4.971811001E0,8.093964309E-2,9.453139454E-2,-8.888089657E-2
4.981811001E0,8.216137439E-2,1.029307917E-1,-9.132435173E-2
4.991811001E0,7.971791178E-2,1.017090604E-1,-9.132435173E-2
5.001811001E0,7.727445662E-2,1.004873365E-1,-9.376781434E-2
5.011811001E0,7.360926270E-2,9.453139454E-2,-9.498954564E-2
5.021811001E0,7.483099401E-2,8.842274547E-2,-9.621127695E-2
5.031811001E0,7.605272532E-2,8.353582025E-2,-9.743300825E-2
5.041811001E0,7.360926270E-2,7.757988572E-2,-9.987647086E-2
5.051811001E0,7.360926270E-2,7.147123665E-2,-1.023199260E-1
5.061811001E0,7.238753140E-2,6.780604273E-2,-1.047633886E-1
5.071811001E0,7.238753140E-2,6.780604273E-2,-1.082758680E-1
5.081811001E0,6.750060618E-2,6.673702598E-2,-1.072068512E-1
5.091811001E0,6.261368841E-2,5.940664560E-2,-1.072068512E-1
5.101811001E0,5.528330430E-2,5.711590126E-2,-1.084285825E-1
5.111811001E0,4.932736978E-2,5.711590126E-2,-1.096503139E-1
5.121811001E0,5.054909736E-2,5.589416996E-2,-1.108720452E-1
5.131811001E0,4.688390717E-2,5.833763257E-2,-1.145372316E-1
5.141811001E0,4.444044828E-2,5.833763257E-2,-1.182024255E-1
5.151811001E0,4.444044828E-2,5.955936015E-2,-1.230893433E-1
5.161811001E0,4.337143153E-2,6.429356337E-2,-1.316414624E-1
5.171811001E0,4.352414981E-2,7.284568250E-2,-1.389718503E-1
5.181811001E0,4.230241850E-2,8.368854225E-2,-1.450804919E-1
5.191811001E0,4.489859566E-2,8.979719132E-2,-1.560760736E-1
5.201811001E0,5.467243865E-2,8.597928286E-2,-1.718058437E-1
5.211811001E0,6.078109145E-2,7.864890248E-2,-1.815796942E-1
5.221811001E0,7.422012836E-2,7.620543987E-2,-1.912008226E-1
5.231811001E0,8.888089657E-2,7.727445662E-2,-2.020436823E-1
5.241811001E0,1.047633886E-1,9.896016866E-2,-2.179261744E-1
5.251811001E0,1.195768714E-1,1.146899462E-1,-2.324342281E-1
5.261811001E0,1.429424733E-1,1.386664063E-1,-2.554943860E-1
5.271811001E0,1.663080603E-1,1.640173197E-1,-2.822197378E-1
5.281811001E0,1.908953935E-1,1.867720485E-1,-3.150537610E-1
5.291811001E0,2.093740702E-1,2.060143054E-1,-3.381139040E-1
5.301811001E0,2.351831198E-1,2.252565622E-1,-3.659082949E-1
5.311811001E0,2.510656118E-1,2.335032374E-1,-3.853032589E-1
5.321811001E0,2.632829249E-1,2.177734673E-1,-3.950771093E-1
5.331811001E0,2.753475010E-1,1.908953935E-1,-3.998112977E-1
5.341811001E0,2.774855494E-1,1.351539344E-1,-3.937026560E-1
5.351811001E0,2.675589919E-1,8.674286306E-2,-3.741549551E-1
5.361811001E0,2.452623993E-1,4.948008433E-2,-3.413209617E-1
5.371811001E0,2.107485086E-1,2.061670274E-2,-2.927571833E-1
5.381811001E0,1.690569520E-1,1.007927675E-2,-2.454151064E-1
5.391811001E0,1.128573567E-1,1.771509275E-2,-1.908953935E-1
5.401811001E0,6.047565863E-2,4.367686436E-2,-1.522581577E-1
5.411811001E0,-4.123340361E-3,9.376781434E-2,-1.064432710E-1
5.421811001E0,-5.879577994E-2,1.632537395E-1,-6.902777404E-2
5.431811001E0,-1.014036313E-1,2.133446932E-1,-4.123340547E-2
5.441811001E0,-1.207986027E-1,2.376265824E-1,-3.283400834E-2
5.451811001E0,-1.267545372E-1,2.498438805E-1,-2.565634064E-2
5.461811001E0,-1.134682223E-1,2.388483137E-1,-2.794708498E-2
5.471811001E0,-9.773843735E-2,2.133446932E-1,-3.390302137E-2
5.481811001E0,-7.223481685E-2,1.730275750E-1,-4.230241850E-2
5.491811001E0,-4.321871698E-2,1.316414624E-1,-4.688390717E-2
5.501811001E0,-1.298088674E-2,1.012509167E-1,-4.428773001E-2
5.511811001E0,1.007927675E-2,8.781187981E-2,-3.558290005E-2
5.521811001E0,3.558290005E-2,6.566801667E-2,-5.742133409E-2
5.531811001E0,5.879577994E-2,4.612032697E-2,-7.055493444E-2
5.541811001E0,7.452555746E-2,3.268129006E-2,-7.177666575E-2
5.551811001E0,8.048149943E-2,2.428189293E-2,-6.918048859E-2
5.561811001E0,7.803803682E-2,1.695151068E-2,-6.811147183E-2
5.571811001E0,7.192938030E-2,2.306016348E-2,-5.833763257E-2
5.581811001E0,6.093380973E-2,2.916881628E-2,-4.260785133E-2
5.591811001E0,5.360342562E-2,3.176499158E-2,-3.405573592E-2
5.601811001E0,4.245513305E-2,3.543018550E-2,-1.466076635E-2
5.611811001E0,3.023782931E-2,3.680463135E-2,8.399397135E-3
5.621811001E0,2.397646010E-2,3.802636266E-2,3.039054573E-2
5.631811001E0,1.649336144E-2,3.695734590E-2,5.955936015E-2
5.641811001E0,1.634064503E-2,4.917465150E-2,8.872817457E-2
5.651811001E0,2.000583708E-2,7.208210230E-2,1.143845171E-1
5.661811001E0,2.122756653E-2,9.392052889E-2,1.325577646E-1
5.671811001E0,2.229658142E-2,1.218676195E-1,1.521054506E-1
5.681811001E0,1.740965992E-2,1.424843222E-1,1.715004146E-1
5.691811001E0,7.635815535E-3,1.450804919E-1,1.824959964E-1
5.701811001E0,-8.246680722E-3,1.475239545E-1,1.933388561E-1
5.711811001E0,-2.901609987E-2,1.537853181E-1,2.176207453E-1
5.721811001E0,-4.474587739E-2,1.466076523E-1,2.076941878E-1
5.731811001E0,-6.185010448E-2,1.418734491E-1,2.138028294E-1
5.741811001E0,-7.422012836E-2,1.275181174E-1,2.270891517E-1
5.751811001E0,-8.155050874E-2,1.044579595E-1,2.393064648E-1
5.761811001E0,-8.536841720E-2,7.910704613E-2,2.503020465E-1
5.771811001E0,-7.941248268E-2,6.688974798E-2,2.527455091E-1
5.781811001E0,-7.574728876E-2,5.115996301E-2,2.454151064E-1
5.791811001E0,-6.841690838E-2,3.283400834E-2,2.321287990E-1
5.801811001E0,-5.619960278E-2,2.061670274E-2,2.200642079E-1
5.811811001E0,-4.291328415E-2,9.621127509E-3,2.139555514E-1
5.821811001E0,-3.695734590E-2,-2.672535367E-2,2.092213482E-1
5.831811001E0,-2.855795063E-2,-4.489859566E-2,2.141082734E-1
5.841811001E0,-3.115412779E-2,-6.795875728E-2,2.251038402E-1
5.851811001E0,-3.741549700E-2,-9.819658846E-2,2.397646159E-1
5.861811001E0,-3.405573592E-2,-1.320996135E-1,2.629774809E-1
5.871811001E0,-3.909537569E-2,-1.527163088E-1,2.788599730E-1
5.881811001E0,-4.612032697E-2,-1.174388453E-1,2.677116990E-1
5.891811001E0,-6.322455406E-2,-9.560041130E-2,2.773328125E-1
5.901811001E0,-1.215621829E-1,-1.569923609E-1,2.490803003E-1
5.911811001E0,-1.948660165E-1,-5.238169432E-2,1.656972021E-1
5.921811001E0,-1.867720485E-1,6.734789163E-2,1.119410545E-1
5.931811001E0,-1.114829108E-1,6.261368748E-3,8.933904022E-2
5.941811001E0,-2.596177394E-3,-2.054034323E-1,5.726861581E-2
5.951811001E0,1.149953827E-1,-4.062253833E-1,-6.414085161E-3
5.961811001E0,1.586722434E-1,-4.816672504E-1,-3.527746722E-2
5.971811001E0,1.716531366E-1,-5.131267905E-1,-9.621127509E-3
5.981811001E0,1.627955884E-1,-5.421429276E-1,4.398229718E-2
5.991811001E0,1.333213449E-1,-5.309945941E-1,9.132435173E-2
6.001811001E0,7.590000331E-2,-4.917465150E-1,1.580613852E-1
6.011811001E0,2.596177347E-2,-4.210388660E-1,2.185370475E-1
6.021811001E0,-6.108652451E-4,-3.420845270E-1,2.328923792E-1
6.031811001E0,9.162978968E-4,-2.463314086E-1,2.559525371E-1
6.041811001E0,2.046398632E-2,-1.397354305E-1,2.924517393E-1
6.051811001E0,5.726861581E-2,-4.291328415E-2,3.133738637E-1
6.061811001E0,1.062905490E-1,3.543018550E-2,2.927571833E-1
6.071811001E0,1.554652005E-1,1.053742543E-1,2.490803003E-1
6.081811001E0,2.231185287E-1,1.982257664E-1,1.847867370E-1
6.091811001E0,2.942843437E-1,2.619084716E-1,1.133155003E-1
6.101811001E0,3.518583775E-1,2.916881442E-1,6.230825558E-2
6.111811001E0,4.239404798E-1,2.791654170E-1,2.015855350E-2
6.121811001E0,4.906775057E-1,2.168571651E-1,-9.926560335E-3
6.131811001E0,5.513058901E-1,9.636399150E-2,-5.329799280E-2
6.141811001E0,6.021603942E-1,1.481348183E-2,-6.505715102E-2
6.151811001E0,6.771441102E-1,-9.468411654E-2,-7.422012836E-2
6.161811001E0,7.547240257E-1,-1.753183305E-1,-9.330966324E-2
6.171811001E0,8.228355050E-1,-2.023491114E-1,-1.014036313E-1
6.181811001E0,8.655960560E-1,-1.699732542E-1,-1.035416573E-1
6.191811001E0,9.132435322E-1,-9.147707373E-2,-1.009454802E-1
6.201811001E0,9.500481486E-1,-2.504547499E-2,-1.020144969E-1
6.211811001E0,9.746354818E-1,3.543018550E-2,-1.191187203E-1
6.221811001E0,9.810495973E-1,1.007927656E-1,-1.337794960E-1
6.231811001E0,9.511171579E-1,1.699732542E-1,-1.583668143E-1
6.241811001E0,9.077457786E-1,2.319760770E-1,-1.867720485E-1
6.251811001E0,8.629998565E-1,2.516764700E-1,-2.076941878E-1
6.261811001E0,7.985535860E-1,2.472477108E-1,-2.238821089E-1
6.271811001E0,7.231117487E-1,2.197587788E-1,-2.388483137E-1
6.281811001E0,6.562219858E-1,2.130392492E-1,-2.441933751E-1
6.291811001E0,6.064364910E-1,2.035708427E-1,-2.420553565E-1
6.301811001E0,5.393940210E-1,1.750128865E-1,-2.448042482E-1
6.311811001E0,4.786129296E-1,1.522581577E-1,-2.499966025E-1
6.321811001E0,4.297437072E-1,1.174388453E-1,-2.306016237E-1
6.331811001E0,3.992004395E-1,8.857546002E-2,-2.258674204E-1
6.341811001E0,3.674354553E-1,6.093380973E-2,-2.345722616E-1
6.351811001E0,3.321579695E-1,3.695734590E-2,-2.457205504E-1
6.361811001E0,2.932153046E-1,2.748893574E-2,-2.568688393E-1
6.371811001E0,2.399173230E-1,2.046398632E-2,-2.767219543E-1
6.381811001E0,1.936442852E-1,5.039638374E-3,-2.915354371E-1
6.391811001E0,1.522581577E-1,-3.207042580E-3,-2.918408811E-1
6.401811001E0,1.256855279E-1,1.832595794E-3,-3.029891551E-1
6.411811001E0,8.796459436E-2,-4.581489484E-4,-3.080287874E-1
6.421811001E0,7.223481685E-2,-2.748893574E-3,-3.057380617E-1
6.431811001E0,7.574728876E-2,-8.857546374E-3,-2.910772860E-1
6.441811001E0,9.025534242E-2,-6.414085161E-3,-2.884811163E-1
6.451811001E0,1.159116775E-1,-1.023199316E-2,-2.956587672E-1
6.461811001E0,1.510364264E-1,-3.481931984E-2,-3.026837409E-1
6.471811001E0,1.898263693E-1,-5.314527452E-2,-2.964223623E-1
6.481811001E0,2.345722616E-1,-6.673702598E-2,-2.706133127E-1
6.491811001E0,2.719877362E-1,-8.261952549E-2,-2.277000248E-1
6.501811001E0,2.947424948E-1,-1.276708394E-1,-1.933388561E-1
6.511811001E0,3.101668358E-1,-1.919644028E-1,-1.725694388E-1
6.521811001E0,3.390302062E-1,-2.842050493E-1,-1.795943826E-1
6.531811001E0,3.900374472E-1,-3.645338416E-1,-2.145664245E-1
6.541811001E0,3.935499489E-1,-4.312708676E-1,-2.386955917E-1
6.551811001E0,3.996585906E-1,-4.532620013E-1,-2.643519342E-1
6.561811001E0,4.146247804E-1,-4.109596014E-1,-2.800817192E-1
6.571811001E0,4.676173329E-1,-1.191187203E-1,-2.131919712E-1
6.581811001E0,4.547891617E-1,2.096794993E-1,-9.651670605E-2
6.591811001E0,3.788891733E-1,2.551889420E-1,-7.635815418E-4
6.601811001E0,2.554943860E-1,4.398229718E-2,1.595885456E-1
6.611811001E0,1.324050426E-1,-2.168571651E-1,2.420553565E-1
6.621811001E0,5.024366826E-2,-3.628539443E-1,2.674062550E-1
6.631811001E0,-4.031710699E-2,-4.702135324E-1,2.913827300E-1
6.641811001E0,-1.038470939E-1,-5.303837657E-1,2.971859276E-1
6.651811001E0,-1.401935667E-1,-5.726861954E-1,2.446515262E-1
6.661811001E0,-1.314887404E-1,-5.849034786E-1,1.959350258E-1
6.671811001E0,-9.560041130E-2,-5.560401082E-1,1.241583601E-1
6.681811001E0,-8.964447677E-2,-4.447098970E-1,3.023782931E-2
6.691811001E0,-1.067487001E-1,-3.029891551E-1,-6.750060618E-2
6.701811001E0,-1.412625909E-1,-2.107485086E-1,-1.397354305E-1
6.711811001E0,-1.928807050E-1,-1.281289905E-1,-2.046398520E-1
6.721811001E0,-2.570215464E-1,-6.597344577E-2,-2.173153162E-1
6.731811001E0,-3.066543639E-1,-1.954768784E-2,-2.139555514E-1
6.741811001E0,-3.491095006E-1,4.138612002E-2,-1.849394590E-1
6.751811001E0,-4.051563740E-1,1.484402567E-1,-1.099557430E-1
6.761811001E0,-4.454734921E-1,3.173444867E-1,2.244929783E-2
6.771811001E0,-4.673119187E-1,4.364632070E-1,1.001819000E-1
6.781811001E0,-5.048801303E-1,4.925101101E-1,1.169806942E-1
6.791811001E0,-5.558874011E-1,4.550946057E-1,7.773260027E-2
6.801811001E0,-6.204863787E-1,3.585779071E-1,2.519819140E-2
6.811811001E0,-6.583600044E-1,2.423607856E-1,-1.023199316E-2
6.821811001E0,-6.988298297E-1,1.310305893E-1,-1.649336144E-2
6.831811001E0,-7.344127297E-1,5.986479297E-2,-1.542434748E-2
6.841811001E0,-7.539604306E-1,1.756237634E-2,-1.786780916E-2
6.851811001E0,-7.478517890E-1,9.010262787E-3,-2.886338346E-2
6.861811001E0,-7.185302377E-1,3.298672289E-2,-3.711006418E-2
6.871811001E0,-6.710354686E-1,6.658431143E-2,-4.428773001E-2
6.881811001E0,-6.404922009E-1,9.193521738E-2,-4.657847434E-2
6.891811001E0,-5.881105065E-1,1.000291854E-1,-3.772092983E-2
6.901811001E0,-5.154175758E-1,9.483683109E-2,-1.786780916E-2
6.911811001E0,-4.401284158E-1,7.742717117E-2,2.138028387E-3
6.921811001E0,-3.758348525E-1,6.612616032E-2,1.221730467E-2
6.931811001E0,-3.103195429E-1,5.238169432E-2,3.329215571E-2
6.941811001E0,-2.533563673E-1,4.108068720E-2,4.948008433E-2
6.951811001E0,-2.096794993E-1,3.115412779E-2,7.284568250E-2
6.961811001E0,-1.782199293E-1,2.733621933E-2,8.277224004E-2
6.971811001E0,-1.649336219E-1,1.267545391E-2,9.025534242E-2
6.981811001E0,-1.724167168E-1,6.108652451E-4,1.049161032E-1
6.991811001E0,-1.895209402E-1,-1.679879380E-3,1.206458881E-1
7.001811001E0,-1.970040351E-1,5.803219974E-3,1.571450830E-1
7.011811001E0,-1.971567571E-1,2.764165215E-2,2.083050460E-1
7.021811001E0,-1.768454909E-1,4.092797264E-2,2.594650090E-1
7.031811001E0,-1.490511149E-1,4.932736978E-2,2.962696552E-1
7.041811001E0,-1.261436790E-1,6.123924255E-2,3.390302062E-1
7.051811001E0,-1.374446750E-1,6.383541971E-2,3.853032589E-1
7.061811001E0,-1.644754708E-1,3.375030309E-2,4.302018583E-1
7.071811001E0,-1.904372424E-1,-5.955935922E-3,4.630358517E-1
7.081811001E0,-2.200642079E-1,-7.116580009E-2,4.970915914E-1
7.091811001E0,-2.605340183E-1,-1.643227488E-1,4.944954216E-1
7.101811001E0,-2.985603809E-1,-2.379320115E-1,5.090034604E-1
7.111811001E0,-3.390302062E-1,-3.309362531E-1,5.064072609E-1
7.121811001E0,-3.733913898E-1,-4.071416855E-1,5.015203953E-1
7.131811001E0,-3.414736688E-1,-3.588833213E-1,4.833471179E-1
7.141811001E0,-2.086104751E-1,-3.112358451E-1,4.705189466E-1
7.151811001E0,-8.552113175E-2,-2.223549485E-1,4.760167301E-1
7.161811001E0,-1.476766765E-1,1.693623960E-1,3.411682248E-1
7.171811001E0,-2.785545588E-1,4.763221741E-1,6.841690838E-2
7.181811001E0,-2.397646159E-1,3.605632186E-1,-1.798998117E-1
7.191811001E0,-1.301143020E-1,-4.291328415E-2,-4.639521539E-1
7.201811001E0,-6.505715102E-2,-4.312708676E-1,-6.081163287E-1
7.211811001E0,6.994406879E-2,-7.157813311E-1,-5.862779021E-1
7.221811001E0,1.759291887E-1,-8.387179971E-1,-4.978551865E-1
7.231811001E0,2.125810981E-1,-8.981246352E-1,-3.585779071E-1
7.241811001E0,1.591303945E-1,-8.611672521E-1,-1.701259762E-1
7.251811001E0,1.000291854E-1,-7.490735054E-1,1.832595654E-2
7.261811001E0,3.985895589E-2,-5.241223574E-1,2.528982162E-1
7.271811001E0,4.428773187E-3,-2.860376537E-1,4.291328490E-1
7.281811001E0,-1.374446787E-3,-7.742717117E-2,5.154175758E-1
7.291811001E0,1.725694351E-2,4.245513305E-2,5.348125100E-1
7.301811001E0,8.353582025E-2,1.426370293E-1,5.070181489E-1
7.311811001E0,1.632537395E-1,2.038762718E-1,4.294382632E-1
7.321811001E0,2.525927722E-1,2.031126916E-1,3.324634135E-1
7.331811001E0,3.185662329E-1,1.783726513E-1,2.779437006E-1
7.341811001E0,3.782783151E-1,8.445212245E-2,1.870774776E-1
7.351811001E0,4.297437072E-1,1.740965992E-2,8.506298810E-2
7.361811001E0,4.604396820E-1,-1.084285788E-2,1.466076635E-2
7.371811001E0,4.850270152E-1,-1.710422710E-2,-1.695151068E-2
7.381811001E0,5.178610086E-1,-1.970040426E-2,-3.497203439E-2
7.391811001E0,5.642867684E-1,1.832595794E-3,-3.604105115E-2
7.401811001E0,6.217080951E-1,6.811147183E-2,-3.817907721E-2
7.411811001E0,7.011205554E-1,1.754710376E-1,-3.787364438E-2
7.421811001E0,7.805330753E-1,3.142901659E-1,-2.290744707E-2
7.431811001E0,8.512406945E-1,3.987422884E-1,1.145372353E-2
7.441811001E0,8.767443299E-1,4.302018583E-1,2.733621933E-2
7.451811001E0,8.622363210E-1,4.363104999E-1,2.244929783E-2
7.461811001E0,7.845036983E-1,4.173736870E-1,-5.955935922E-3
7.471811001E0,6.824892163E-1,3.500257730E-1,-6.994406879E-2
7.481811001E0,5.780312419E-1,3.032945991E-1,-1.117883399E-1
7.491811001E0,4.550946057E-1,1.999056488E-1,-1.537853181E-1
7.501811001E0,3.356704414E-1,9.880745411E-2,-1.800525337E-1
7.511811001E0,2.504547536E-1,4.596760869E-2,-2.023491114E-1
7.521811001E0,1.652390510E-1,-7.635815418E-4,-2.064724565E-1
7.531811001E0,1.030835137E-1,-4.642575979E-2,-2.116648108E-1
7.541811001E0,5.177082866E-2,-8.613199741E-2,-2.105957866E-1
7.551811001E0,1.527163107E-2,-1.137736514E-1,-2.131919712E-1
7.561811001E0,-2.855795063E-2,-1.449277848E-1,-2.220495194E-1
7.571811001E0,-6.383541971E-2,-1.653917581E-1,-2.379320115E-1
7.581811001E0,-9.544769675E-2,-1.882992089E-1,-2.527455091E-1
7.591811001E0,-1.125519201E-1,-2.173153162E-1,-2.747366428E-1
7.601811001E0,-1.101084575E-1,-2.620611787E-1,-3.014619946E-1
7.611811001E0,-1.027780771E-1,-3.046690524E-1,-3.281873465E-1
7.621811001E0,-7.605272532E-2,-3.121521473E-1,-3.353650272E-1
7.631811001E0,-3.451388702E-2,-2.977968156E-1,-3.484986126E-1
7.641811001E0,1.908953860E-2,-2.703078687E-1,-3.520110846E-1
7.651811001E0,7.757988572E-2,-2.354885489E-1,-3.394883573E-1
7.661811001E0,1.298088580E-1,-2.031126916E-1,-3.210096955E-1
7.671811001E0,1.795943826E-1,-1.815796942E-1,-2.817615867E-1
7.681811001E0,2.109012306E-1,-1.805106848E-1,-2.315179259E-1
7.691811001E0,2.165517360E-1,-2.203696370E-1,-1.899790913E-1
7.701811001E0,2.246456891E-1,-2.785545588E-1,-1.545489132E-1
7.711811001E0,2.325869352E-1,-3.683517575E-1,-1.166752651E-1
7.721811001E0,2.478585690E-1,-4.483750761E-1,-8.597928286E-2
7.731811001E0,2.646573782E-1,-4.799873531E-1,-8.338310570E-2
7.741811001E0,3.037527502E-1,-5.215262175E-1,-1.307251602E-1
7.751811001E0,3.491095006E-1,-5.667302608E-1,-2.205223590E-1
7.761811001E0,3.451388776E-1,-3.825543523E-1,-2.548835278E-1
7.771811001E0,2.851213515E-1,-1.640173197E-1,-2.251038402E-1
7.781811001E0,2.284636050E-1,-1.295034289E-1,-9.865473956E-2
7.791811001E0,1.820378453E-1,-2.840523422E-1,4.016438872E-2
7.801811001E0,1.188132912E-1,-3.781255782E-1,1.653917581E-1
7.811811001E0,7.437284291E-2,-3.811798990E-1,2.748893499E-1
7.821811001E0,2.138028294E-2,-3.649919927E-1,3.903428912E-1
7.831811001E0,-6.872233935E-3,-3.526219726E-1,4.546364546E-1
7.841811001E0,-2.993239649E-2,-3.355177343E-1,4.654793143E-1
7.851811001E0,-7.590000331E-2,-3.364340365E-1,4.213443100E-1
7.861811001E0,-1.421788931E-1,-3.410155177E-1,3.138320148E-1
7.871811001E0,-1.971567571E-1,-3.287982047E-1,1.794416606E-1
7.881811001E0,-2.280054539E-1,-3.081815243E-1,5.619960278E-2
7.891811001E0,-2.437352389E-1,-2.573269904E-1,-1.108720452E-1
7.901811001E0,-2.292271852E-1,-1.957823038E-1,-2.571742535E-1
7.911811001E0,-2.014328092E-1,-1.162171140E-1,-3.704897761E-1
7.921811001E0,-1.873829067E-1,-7.330383174E-3,-4.106541574E-1
7.931811001E0,-1.844813079E-1,1.721112877E-1,-3.791945875E-1
7.941811001E0,-1.881465018E-1,2.667953968E-1,-3.233004212E-1
7.951811001E0,-2.151772827E-1,2.475531399E-1,-2.794708610E-1
7.961811001E0,-2.655736506E-1,1.971567571E-1,-2.347249687E-1
7.971811001E0,-3.390302062E-1,1.600466967E-1,-1.777617931E-1
7.981811001E0,-4.075998366E-1,1.424843222E-1,-1.172861308E-1
7.991811001E0,-4.576907754E-1,1.488984078E-1,-5.894849449E-2
8.001811001E0,-5.004513264E-1,1.783726513E-1,-6.872233935E-3
8.011811001E0,-5.283984542E-1,2.136501223E-1,-2.138028387E-3
8.021811001E0,-5.514585972E-1,2.283108830E-1,8.552113548E-3
8.031811001E0,-5.561928153E-1,2.671008408E-1,3.665191587E-3
8.041811001E0,-5.679519773E-1,3.217732608E-1,-3.176499158E-2
8.051811001E0,-5.711590052E-1,3.689626157E-1,-5.986479297E-2
8.061811001E0,-5.589417219E-1,3.992004395E-1,-6.352998316E-2
8.071811001E0,-5.297728777E-1,4.172209501E-1,-4.382958263E-2
8.081811001E0,-4.838052690E-1,4.193589985E-1,-2.138028387E-3
8.091811001E0,-4.379903674E-1,3.937026560E-1,4.932736978E-2
8.101811001E0,-3.909537494E-1,3.559817076E-1,8.857546002E-2
8.111811001E0,-3.524692357E-1,3.291036487E-1,1.241583601E-1
8.121811001E0,-3.028364480E-1,3.008511364E-1,1.513418704E-1
8.131811001E0,-2.605340183E-1,2.680171132E-1,1.734857261E-1
8.141811001E0,-2.425135076E-1,2.388483137E-1,1.858557463E-1
8.151811001E0,-2.293798923E-1,2.121229619E-1,2.041817009E-1
8.161811001E0,-2.270891517E-1,1.963931769E-1,2.322815061E-1
8.171811001E0,-2.333505303E-1,1.963931769E-1,2.528982162E-1
8.181811001E0,-2.382374406E-1,2.049452960E-1,2.748893499E-1
8.191811001E0,-2.296853364E-1,2.339613885E-1,2.871066630E-1
8.201811001E0,-1.980730593E-1,2.738203406E-1,2.944370508E-1
8.211811001E0,-1.528690308E-1,3.110831380E-1,3.008511364E-1
8.221811001E0,-1.237002090E-1,3.278819323E-1,2.985603809E-1
8.231811001E0,-9.926560521E-2,3.252857327E-1,2.816088796E-1
8.241811001E0,-8.216137439E-2,2.984076738E-1,2.585487068E-1
8.251811001E0,-6.643159688E-2,2.619084716E-1,2.403754741E-1
8.261811001E0,-4.825835302E-2,2.025018334E-1,2.199114859E-1
8.271811001E0,-4.352414981E-2,1.296561509E-1,1.992947906E-1
8.281811001E0,-6.551529467E-2,5.818491429E-2,1.773036420E-1
8.291811001E0,-9.117163718E-2,6.261368748E-3,1.650863290E-1
8.301811001E0,-1.328631938E-1,-5.650503561E-2,1.612684280E-1
8.311811001E0,-1.684460938E-1,-1.119410545E-1,1.805106848E-1
8.321811001E0,-2.028072625E-1,-1.626428664E-1,2.145664245E-1
8.331811001E0,-2.128865421E-1,-1.939497143E-1,2.327396572E-1
8.341811001E0,-2.313652188E-1,-2.144137025E-1,2.631302178E-1
8.351811001E0,-2.449569702E-1,-2.083050460E-1,2.996293902E-1
8.361811001E0,-2.470949888E-1,-1.233947799E-1,3.178026378E-1
8.371811001E0,-2.174680233E-1,1.221730467E-2,3.336851299E-1
8.381811001E0,-2.304489166E-1,1.408044398E-1,3.382666409E-1
8.391811001E0,-3.443752825E-1,3.631593883E-1,2.277000248E-1
8.401811001E0,-4.138612151E-1,5.039638281E-1,1.345430762E-1
8.411811001E0,-3.553708494E-1,4.053090811E-1,5.467243865E-2
8.421811001E0,-1.757764816E-1,1.264491081E-1,-4.764748737E-2
8.431811001E0,1.466076635E-2,-1.548543423E-1,-1.437060535E-1
8.441811001E0,1.262963861E-1,-3.046690524E-1,-1.928807050E-1
8.451811001E0,2.086104751E-1,-4.069889784E-1,-2.020436823E-1
8.461811001E0,2.313652188E-1,-4.665483236E-1,-1.750128865E-1
8.471811001E0,2.225076705E-1,-4.712825418E-1,-1.434006095E-1
8.481811001E0,2.225076705E-1,-4.324925840E-1,-1.117883399E-1
8.491811001E0,2.176207453E-1,-3.463605940E-1,-5.833763257E-2
8.501811001E0,1.968513280E-1,-2.127338201E-1,3.527746722E-2
8.511811001E0,1.797471046E-1,-8.032877743E-2,1.350012124E-1
8.521811001E0,1.881465018E-1,9.560041130E-2,2.675589919E-1
8.531811001E0,2.319760770E-1,2.432770878E-1,3.529273868E-1
8.541811001E0,3.100140989E-1,3.518583775E-1,3.813326359E-1
8.551811001E0,3.674354553E-1,3.914119005E-1,3.596469164E-1
8.561811001E0,4.141666293E-1,4.164573848E-1,2.941316068E-1
8.571811001E0,4.280638099E-1,4.332561791E-1,2.295326144E-1
8.581811001E0,4.040873647E-1,4.091269970E-1,1.466076523E-1
8.591811001E0,3.825543523E-1,3.740022480E-1,8.185594529E-2
8.601811001E0,3.765984178E-1,3.242167234E-1,2.718350291E-2
8.611811001E0,3.642283976E-1,2.492330223E-1,1.374446787E-2
8.621811001E0,3.784310222E-1,1.837177277E-1,2.611448988E-2
8.631811001E0,4.037819207E-1,1.301143020E-1,3.726277873E-2
8.641811001E0,4.389066696E-1,1.130100712E-1,3.252857551E-2
8.651811001E0,4.816672504E-1,1.551597714E-1,2.672535367E-2
8.661811001E0,5.183191895E-1,2.009746730E-1,3.543018550E-2
8.671811001E0,5.513058901E-1,2.565633953E-1,5.619960278E-2
8.681811001E0,5.587889552E-1,3.121521473E-1,5.742133409E-2
8.691811001E0,5.371032953E-1,3.402519524E-1,2.916881628E-2
8.701811001E0,4.996877611E-1,3.477350473E-1,9.162978968E-4
8.711811001E0,4.463897645E-1,3.346014321E-1,-3.466660157E-2
8.721811001E0,3.796527386E-1,3.179553747E-1,-8.368854225E-2
8.731811001E0,2.959642112E-1,3.075706363E-1,-1.269072592E-1
8.741811001E0,2.304489166E-1,2.849686444E-1,-1.527163088E-1
8.751811001E0,1.560760736E-1,2.211332172E-1,-1.750128865E-1
8.761811001E0,1.036943719E-1,1.438587606E-1,-1.886046380E-1
8.771811001E0,7.055493444E-2,8.109235764E-2,-1.899790913E-1
8.781811001E0,4.230241850E-2,3.665191587E-3,-1.948660165E-1
8.791811001E0,2.260201424E-2,-7.376197726E-2,-1.962404549E-1
8.801811001E0,4.123340361E-3,-1.317941695E-1,-1.913535446E-1
8.811811001E0,-4.581489135E-3,-1.620320082E-1,-1.852448881E-1
8.821811001E0,-1.069014147E-2,-1.740965992E-1,-1.803579628E-1
8.831811001E0,-1.435533352E-2,-1.753183305E-1,-1.828014255E-1
8.841811001E0,-2.275473066E-2,-1.716531366E-1,-2.011273801E-1
8.851811001E0,-2.626720630E-2,-1.753183305E-1,-2.292271852E-1
8.861811001E0,-1.985312067E-2,-1.705841124E-1,-2.706133127E-1
8.871811001E0,9.621127509E-3,-1.525636017E-1,-3.022255898E-1
8.881811001E0,3.405573592E-2,-1.382082552E-1,-3.167336285E-1
8.891811001E0,6.811147183E-2,-1.226311997E-1,-3.176499307E-1
8.901811001E0,1.117883399E-1,-1.084285825E-1,-2.955060601E-1
8.911811001E0,1.638645977E-1,-9.407325089E-2,-2.550362349E-1
8.921811001E0,2.073887438E-1,-9.804387391E-2,-2.133446932E-1
8.931811001E0,2.457205504E-1,-1.672243625E-1,-1.692096740E-1
8.941811001E0,2.620611787E-1,-3.042109013E-1,-1.348485053E-1
8.951811001E0,2.625193298E-1,-4.605923891E-1,-1.102611795E-1
8.961811001E0,2.632829249E-1,-5.659666657E-1,-1.125519201E-1
8.971811001E0,3.045163155E-1,-6.693555713E-1,-1.438587606E-1
8.981811001E0,3.681990206E-1,-5.789475441E-1,-1.655444801E-1
8.991811001E0,3.824016452E-1,-2.735149264E-1,-1.171334088E-1
9.001811001E0,3.788891733E-1,-1.351539344E-1,-4.780020565E-2
9.011811001E0,3.721696436E-1,-2.138028294E-1,1.069014147E-2
9.021811001E0,3.300199509E-1,-3.637702465E-1,4.718934000E-2
9.031811001E0,2.832887471E-1,-4.373795092E-1,8.109235764E-2
9.041811001E0,2.331978083E-1,-4.491386712E-1,1.259909570E-1
9.051811001E0,2.075414658E-1,-4.343251884E-1,1.550070494E-1
9.061811001E0,2.331978083E-1,-4.236350358E-1,1.441642046E-1
9.071811001E0,2.588541508E-1,-4.141666293E-1,1.259909570E-1
9.081811001E0,2.577851415E-1,-3.923282027E-1,1.004873365E-1
9.091811001E0,2.168571651E-1,-3.897320330E-1,4.902193695E-2
9.101811001E0,1.577559561E-1,-4.016439021E-1,-4.993823543E-2
9.111811001E0,1.073595658E-1,-3.833179474E-1,-1.404990107E-1
9.121811001E0,6.566801667E-2,-2.922990322E-1,-2.273945808E-1
9.131811001E0,2.641992271E-2,-1.478293836E-1,-2.849686444E-1
9.141811001E0,-1.527163107E-2,-9.468411095E-3,-3.280346394E-1
9.151811001E0,-6.307183951E-2,1.580613852E-1,-3.808744848E-1
9.161811001E0,-8.307767659E-2,2.987131178E-1,-4.153883755E-1
9.171811001E0,-8.002334833E-2,4.173736870E-1,-4.214970171E-1
9.181811001E0,-7.391469181E-2,4.804455042E-1,-4.057672322E-1
9.191811001E0,-7.880161703E-2,4.986187518E-1,-3.717114925E-1
9.201811001E0,-1.098030284E-1,4.274529517E-1,-3.156646192E-1
9.211811001E0,-1.582140923E-1,2.982549667E-1,-2.512183189E-1
9.221811001E0,-2.160935849E-1,1.664607823E-1,-2.075414658E-1
9.231811001E0,-3.069597781E-1,8.399397135E-3,-1.713477075E-1
9.241811001E0,-4.011857510E-1,-1.024726480E-1,-1.437060535E-1
9.251811001E0,-4.718934000E-1,-1.444696337E-1,-1.317941695E-1
9.261811001E0,-5.218316317E-1,-1.464549452E-1,-1.186605766E-1
9.271811001E0,-5.448917747E-1,-1.160643995E-1,-1.163698286E-1
9.281811001E0,-5.326744914E-1,-5.787948146E-2,-9.941831976E-2
9.291811001E0,-5.080871582E-1,-2.290744567E-3,-9.560041130E-2
9.301811001E0,-4.543310404E-1,7.009678334E-2,-8.567385375E-2
9.311811001E0,-3.874412775E-1,1.290452778E-1,-5.497787148E-2
9.321811001E0,-3.158173263E-1,1.649336219E-1,-2.535090782E-2
9.331811001E0,-2.501493096E-1,1.828014255E-1,-1.832595794E-3
9.341811001E0,-1.774563491E-1,1.798998117E-1,3.023782931E-2
9.351811001E0,-1.206458881E-1,1.542434692E-1,6.352998316E-2
9.361811001E0,-8.445212245E-2,1.212567538E-1,8.933904022E-2
9.371811001E0,-6.765332818E-2,9.208793938E-2,1.090394482E-1
9.381811001E0,-4.841107130E-2,6.047565863E-2,1.395827085E-1
9.391811001E0,-4.260785133E-2,5.085453019E-2,1.701259762E-1
9.401811001E0,-5.238169432E-2,7.147123665E-2,1.968513280E-1
9.411811001E0,-7.070764899E-2,1.226311997E-1,2.344195396E-1
9.421811001E0,-7.422012836E-2,2.075414658E-1,2.599231601E-1
9.431811001E0,-5.574145541E-2,3.043636084E-1,2.880229652E-1
9.441811001E0,-2.886338346E-2,3.636175394E-1,3.063489199E-1
9.451811001E0,-1.985311974E-3,4.118759036E-1,3.100140989E-1
9.461811001E0,3.100141138E-2,4.141666293E-1,2.907718420E-1
9.471811001E0,6.505715102E-2,3.654501438E-1,2.519819140E-1
9.481811001E0,9.666942805E-2,3.008511364E-1,2.109012306E-1
9.491811001E0,1.186605766E-1,2.231185287E-1,1.452332139E-1
9.501811001E0,1.114829108E-1,1.527163088E-1,8.429940045E-2
9.511811001E0,6.658431143E-2,8.750644326E-2,4.398229718E-2
9.521811001E0,-6.719517522E-3,-2.107485011E-2,2.046398632E-2
9.531811001E0,-7.895433158E-2,-1.490511149E-1,3.359758854E-2
9.541811001E0,-1.466076523E-1,-2.588541508E-1,8.338310570E-2
9.551811001E0,-1.861611903E-1,-3.385720551E-1,1.258382350E-1
9.561811001E0,-2.452623993E-1,-4.132503271E-1,2.012801021E-1
9.571811001E0,-2.857322097E-1,-4.153883755E-1,2.521346211E-1
9.581811001E0,-3.002402782E-1,-3.291036487E-1,2.945897579E-1
9.591811001E0,-3.126102984E-1,-3.046690524E-1,3.543018401E-1
9.601811001E0,-4.156937897E-1,-2.495384514E-1,3.353650272E-1
9.611811001E0,-5.403103232E-1,-1.191187203E-1,3.210096955E-1
9.621811001E0,-5.462662578E-1,-1.215621829E-1,2.857322097E-1
9.631811001E0,-4.671591818E-1,-2.202169150E-1,2.240348309E-1
9.641811001E0,-3.529273868E-1,-3.665191531E-1,1.371392459E-1
9.651811001E0,-3.136793077E-1,-4.360050559E-1,4.001167417E-2
9.661811001E0,-3.072652221E-1,-4.265366495E-1,-7.483099122E-3
9.671811001E0,-2.776382565E-1,-3.795000315E-1,-4.153883830E-2
9.681811001E0,-1.886046380E-1,-3.423899710E-1,-5.818491429E-2
9.691811001E0,-7.987063378E-2,-2.171625942E-1,-5.772676691E-2
9.701811001E0,1.053742506E-2,-8.674286306E-2,-4.505131021E-2
9.711811001E0,1.397354305E-1,4.214970022E-2,-2.626720630E-2
9.721811001E0,2.553416789E-1,1.020144969E-1,1.450804994E-2
9.731811001E0,3.362813294E-1,1.088867337E-1,9.666942805E-2
9.741811001E0,3.663664162E-1,9.300423414E-2,1.430951804E-1
9.751811001E0,3.561344445E-1,8.231408894E-2,2.150245607E-1
9.761811001E0,3.057380617E-1,8.750644326E-2,2.903137207E-1
9.771811001E0,2.787072659E-1,7.681630552E-2,3.327688277E-1
9.781811001E0,2.493857294E-1,5.894849449E-2,3.436116874E-1
9.791811001E0,2.580905557E-1,6.246097013E-2,3.228422701E-1
9.801811001E0,2.898555696E-1,4.398229718E-2,2.926044464E-1
9.811811001E0,3.399465084E-1,3.634648025E-2,2.405281961E-1
9.821811001E0,4.159992337E-1,6.246097013E-2,1.519527286E-1
9.831811001E0,5.137376785E-1,1.102611795E-1,9.880745411E-2
9.841811001E0,6.091853380E-1,1.615738571E-1,5.054909736E-2
9.851811001E0,6.815729141E-1,2.070833147E-1,-1.970040426E-2
9.861811001E0,7.660250068E-1,2.548835278E-1,-9.483683109E-2
9.871811001E0,8.261952400E-1,2.787072659E-1,-1.334740520E-1
9.881811001E0,8.455902338E-1,2.822197378E-1,-1.626428664E-1
9.891811001E0,8.312348723E-1,2.664899528E-1,-2.041817009E-1
9.901811001E0,7.753407359E-1,2.582432926E-1,-2.252565622E-1
9.911811001E0,6.721044779E-1,2.408336252E-1,-2.367102802E-1
9.921811001E0,5.818491578E-1,1.892155111E-1,-2.261728644E-1
9.931811001E0,4.659374654E-1,1.088867337E-1,-2.133446932E-1
9.941811001E0,3.523165286E-1,2.351831272E-2,-1.968513280E-1
9.951811001E0,2.510656118E-1,-7.040221989E-2,-1.899790913E-1
9.961811001E0,1.838704348E-1,-1.342376322E-1,-1.902845204E-1
9.971811001E0,1.119410545E-1,-2.040289938E-1,-1.942551434E-1
9.981811001E0,5.696318299E-2,-2.533563673E-1,-1.982257664E-1
9.991811001E0,1.924225502E-2,-2.809980214E-1,-2.118175179E-1
1.000181100E1,-2.443460980E-3,-2.869539559E-1,-2.338086665E-1
1.001181100E1,-2.290744707E-2,-2.638937831E-1,-2.716823220E-1
1.002181100E1,-3.084869497E-2,-2.020436823E-1,-3.133738637E-1
1.003181100E1,-2.428189293E-2,-1.293507218E-1,-3.400992155E-1
1.004181100E1,-9.162978269E-3,-3.619376570E-2,-3.779728711E-1
1.005181100E1,1.557706390E-2,5.085453019E-2,-3.937026560E-1
1.006181100E1,3.756821156E-2,7.864890248E-2,-3.765984178E-1
1.007181100E1,6.032294407E-2,6.765332818E-2,-3.448334336E-1
1.008181100E1,9.636399150E-2,2.260201424E-2,-2.823724449E-1
1.009181100E1,1.429424733E-1,-3.329215571E-2,-1.966986060E-1
1.010181100E1,2.005165219E-1,-8.933904022E-2,-1.049161032E-1
1.011181100E1,2.461786866E-1,-1.464549452E-1,-5.345070735E-2
1.012181100E1,2.904664278E-1,-2.629774809E-1,-1.160643995E-2
1.013181100E1,3.216205537E-1,-3.904955983E-1,-1.527163084E-3
1.014181100E1,3.455969989E-1,-4.780020416E-1,-1.954768784E-2
1.015181100E1,3.787364662E-1,-5.036584139E-1,-7.422012836E-2
1.016181100E1,4.170682430E-1,-4.967861474E-1,-1.727221459E-1
1.017181100E1,5.053382516E-1,-4.963280261E-1,-2.819143236E-1
1.018181100E1,5.962044597E-1,-2.872593701E-1,-3.109304011E-1
1.019181100E1,6.278167367E-1,4.703662544E-2,-2.952006161E-1
1.020181100E1,6.004805565E-1,3.772092983E-2,-2.076941878E-1
1.021181100E1,5.419901609E-1,-1.823432744E-1,-1.151480973E-1
1.022181100E1,4.825835526E-1,-2.837468982E-1,-1.298088674E-2
1.023181100E1,4.037819207E-1,-2.877175212E-1,1.426370293E-1
1.024181100E1,3.408628106E-1,-3.005456924E-1,2.774855494E-1
1.025181100E1,3.245221674E-1,-3.220787048E-1,3.492622077E-1
1.026181100E1,3.158173263E-1,-3.341432810E-1,3.810271919E-1
1.027181100E1,2.368630022E-1,-3.106249869E-1,3.634648323E-1
1.028181100E1,1.206458881E-1,-2.759583890E-1,3.090978265E-1
1.029181100E1,3.726277873E-2,-2.599231601E-1,2.281581759E-1
1.030181100E1,-4.306599870E-2,-2.147191316E-1,8.994990587E-2
1.031181100E1,-9.666942805E-2,-1.055269688E-1,-3.833179548E-2
1.032181100E1,-1.281289905E-1,4.612032697E-2,-1.557706445E-1
1.033181100E1,-1.429424733E-1,1.672243625E-1,-2.388483137E-1
1.034181100E1,-1.601994038E-1,2.932153046E-1,-3.353650272E-1
1.035181100E1,-1.641700417E-1,3.804163337E-1,-4.195117056E-1
1.036181100E1,-1.550070494E-1,4.529565871E-1,-4.828889668E-1
1.037181100E1,-1.569923609E-1,5.280929804E-1,-4.928155243E-1
1.038181100E1,-1.777617931E-1,5.888741016E-1,-4.515821338E-1
1.039181100E1,-2.170098722E-1,5.710062981E-1,-4.042400718E-1
1.040181100E1,-2.652682364E-1,4.514294267E-1,-3.324634135E-1
1.041181100E1,-3.639229834E-1,2.571742535E-1,-2.414444834E-1
1.042181100E1,-4.612032473E-1,1.027780771E-1,-1.467603743E-1
1.043181100E1,-5.665774941E-1,-3.054326167E-3,-7.528914511E-2
1.044181100E1,-6.423248053E-1,-3.527746722E-2,-3.543018550E-2
1.045181100E1,-7.154759169E-1,-1.908953860E-2,-4.123340361E-3
1.046181100E1,-7.628179789E-1,1.649336144E-2,2.474004216E-2
1.047181100E1,-7.762570381E-1,7.116580009E-2,4.413501546E-2
1.048181100E1,-7.661777139E-1,1.631010175E-1,4.642575979E-2
1.049181100E1,-7.111998796E-1,2.561052442E-1,5.894849449E-2
1.050181100E1,-6.304129362E-1,3.393356502E-1,6.902777404E-2
1.051181100E1,-5.464189649E-1,3.872885704E-1,7.788532227E-2
1.052181100E1,-4.323398769E-1,4.083634019E-1,9.315694869E-2
1.053181100E1,-3.303253949E-1,3.918700516E-1,1.072068512E-1
1.054181100E1,-2.417499274E-1,3.477350473E-1,1.113301888E-1
1.055181100E1,-1.823432744E-1,2.939788997E-1,1.093448773E-1
1.056181100E1,-1.255328059E-1,2.124283910E-1,1.183551401E-1
1.057181100E1,-9.437867999E-2,1.383609772E-1,1.404990107E-1
1.058181100E1,-8.857546002E-2,9.239336848E-2,1.685988009E-1
1.059181100E1,-1.035416573E-1,6.459899992E-2,2.014328092E-1
1.060181100E1,-1.281289905E-1,8.781187981E-2,2.499966025E-1
1.061181100E1,-1.353066564E-1,1.412625909E-1,2.779437006E-1
1.062181100E1,-1.169806942E-1,2.186897546E-1,2.962696552E-1
1.063181100E1,-1.009454802E-1,2.780964077E-1,3.011565804E-1
1.064181100E1,-8.613199741E-2,3.118467033E-1,2.901609838E-1
1.065181100E1,-6.658431143E-2,2.753475010E-1,2.648100853E-1
1.066181100E1,-5.329799280E-2,2.206750661E-1,2.405281961E-1
1.067181100E1,-4.001167417E-2,1.514945775E-1,2.066251636E-1
1.068181100E1,-5.833763257E-2,8.002334833E-2,1.650863290E-1
1.069181100E1,-1.107193232E-1,-4.581489135E-3,1.369865239E-1
1.070181100E1,-1.595885456E-1,-8.307767659E-2,1.305724531E-1
1.071181100E1,-2.038762718E-1,-1.942551434E-1,1.450804919E-1
1.072181100E1,-2.240348309E-1,-3.115412891E-1,1.853975952E-1
1.073181100E1,-2.260201424E-1,-3.889684379E-1,2.438879460E-1
1.074181100E1,-2.284636050E-1,-3.683517575E-1,2.768746614E-1
1.075181100E1,-2.203696370E-1,-3.150537610E-1,3.596469164E-1
1.076181100E1,-2.277000248E-1,-2.481640130E-1,4.094324410E-1
1.077181100E1,-3.153591752E-1,-8.781187981E-2,3.295617998E-1
1.078181100E1,-4.115704596E-1,9.330966324E-2,2.874121070E-1
1.079181100E1,-4.077525437E-1,3.634648025E-2,2.144137025E-1
1.080181100E1,-3.178026378E-1,-1.475239545E-1,1.055269688E-1
1.081181100E1,-2.240348309E-1,-2.875648141E-1,3.817907767E-3
1.082181100E1,-1.543961912E-1,-3.827070892E-1,-1.004873365E-1
1.083181100E1,-1.266018152E-1,-4.459316432E-1,-1.258382350E-1
1.084181100E1,-1.209513173E-1,-5.016731024E-1,-1.001819000E-1
1.085181100E1,-1.088867337E-1,-4.969388843E-1,-7.819075137E-2
1.086181100E1,-5.528330430E-2,-4.329507351E-1,-5.604688451E-2
1.087181100E1,8.246680722E-3,-3.182607889E-1,-2.046398632E-2
1.088181100E1,7.040221989E-2,-1.864666194E-1,4.062253982E-2
1.089181100E1,1.128573567E-1,-5.329799280E-2,1.308778822E-1
1.090181100E1,1.591303945E-1,1.102611795E-1,2.162462920E-1
1.091181100E1,1.960877478E-1,2.748893499E-1,2.528982162E-1
1.092181100E1,2.304489166E-1,3.764457107E-1,2.736676335E-1
1.093181100E1,2.597704530E-1,4.538728893E-1,2.907718420E-1
1.094181100E1,2.660318017E-1,5.167919993E-1,2.919935882E-1
1.095181100E1,2.591595948E-1,5.616905689E-1,2.735149264E-1
1.096181100E1,2.567161322E-1,5.532912016E-1,2.504547536E-1
1.097181100E1,2.762638032E-1,5.009095073E-1,2.212859392E-1
1.098181100E1,3.197879493E-1,4.072943926E-1,1.826487035E-1
1.099181100E1,3.747658134E-1,3.255911767E-1,1.003346145E-1
1.100181100E1,4.138612151E-1,2.561052442E-1,2.748893574E-2
1.101181100E1,4.810563922E-1,1.901318133E-1,-5.253441259E-2
1.102181100E1,5.526803136E-1,1.606575549E-1,-6.918048859E-2
1.103181100E1,6.062837839E-1,1.444696337E-1,-7.849618047E-2
1.104181100E1,6.672175527E-1,1.476766765E-1,-9.529497474E-2
1.105181100E1,7.026477456E-1,1.704314053E-1,-1.036943719E-1
1.106181100E1,7.113525867E-1,2.079996169E-1,-1.194241568E-1
1.107181100E1,6.969972253E-1,2.516764700E-1,-1.415680200E-1
1.108181100E1,6.462954283E-1,3.003929853E-1,-1.699732542E-1
1.109181100E1,5.723807216E-1,3.408628106E-1,-1.886046380E-1
1.110181100E1,4.764748812E-1,3.463605940E-1,-2.087631971E-1
1.111181100E1,3.961461186E-1,3.165809214E-1,-2.078468949E-1
1.112181100E1,2.826778889E-1,2.444988191E-1,-2.011273801E-1
1.113181100E1,1.728748679E-1,1.434006095E-1,-2.028072625E-1
1.114181100E1,9.590584040E-2,5.910121277E-2,-2.020436823E-1
1.115181100E1,1.771509275E-2,-3.985895589E-2,-2.084577680E-1
1.116181100E1,-3.833179548E-2,-1.085812971E-1,-2.196060568E-1
1.117181100E1,-7.727445662E-2,-1.362229437E-1,-2.368630022E-1
1.118181100E1,-9.285151958E-2,-1.325577646E-1,-2.600758672E-1
1.119181100E1,-9.010262042E-2,-1.058324054E-1,-2.991712391E-1
1.120181100E1,-7.635815442E-2,-5.635231733E-2,-3.405573666E-1
1.121181100E1,-7.223481685E-2,1.679879380E-3,-3.674354553E-1
1.122181100E1,-8.292495459E-2,3.573561832E-2,-3.833179474E-1
1.123181100E1,-1.035416573E-1,5.161811411E-2,-3.969096839E-1
1.124181100E1,-1.059851199E-1,4.306599870E-2,-3.993531466E-1
1.125181100E1,-8.292495459E-2,3.329215571E-2,-3.894265890E-1
1.126181100E1,-4.062253982E-2,1.603521220E-2,-3.660610020E-1
1.127181100E1,3.084869497E-2,-6.108652335E-3,-3.240640163E-1
1.128181100E1,1.215621829E-1,-3.207042441E-2,-2.675589919E-1
1.129181100E1,1.941024363E-1,-8.582656831E-2,-2.280054539E-1
1.130181100E1,2.735149264E-1,-2.171625942E-1,-1.957823038E-1
1.131181100E1,3.323107064E-1,-4.077525437E-1,-1.855503172E-1
1.132181100E1,3.791945875E-1,-5.971207619E-1,-2.020436823E-1
1.133181100E1,4.033237696E-1,-7.003570199E-1,-2.310597748E-1
1.134181100E1,4.677700698E-1,-7.881689072E-1,-2.939788997E-1
1.135181100E1,5.902485251E-1,-6.302602291E-1,-3.275764883E-1
1.136181100E1,6.606507897E-1,-2.464841306E-1,-2.727513313E-1
1.137181100E1,6.630942225E-1,-1.007927656E-1,-1.815796942E-1
1.138181100E1,6.033821702E-1,-2.408336252E-1,-6.230825558E-2
1.139181100E1,4.850270152E-1,-4.593706727E-1,6.765332818E-2
1.140181100E1,3.793473244E-1,-5.529857874E-1,1.829541475E-1
1.141181100E1,2.725986242E-1,-5.957463384E-1,3.152064681E-1
1.142181100E1,2.246456891E-1,-6.171266437E-1,3.747658134E-1
1.143181100E1,2.174680233E-1,-6.061310172E-1,3.831652105E-1
1.144181100E1,2.067778856E-1,-5.807801485E-1,3.501785100E-1
1.145181100E1,1.430951804E-1,-5.198463202E-1,2.693915665E-1
1.146181100E1,5.910121277E-2,-4.309654236E-1,1.456913650E-1
1.147181100E1,-3.436116874E-2,-3.106249869E-1,-6.108652335E-3
1.148181100E1,-1.000291854E-1,-1.928807050E-1,-1.223257631E-1
1.149181100E1,-1.950187236E-1,-6.398813426E-2,-2.302961946E-1
1.150181100E1,-2.999348342E-1,5.421429127E-2,-2.981022298E-1
1.151181100E1,-4.075998366E-1,1.518000066E-1,-3.304781020E-1
1.152181100E1,-4.815145433E-1,2.335032374E-1,-3.162754774E-1
1.153181100E1,-5.444336534E-1,3.685044646E-1,-2.645046413E-1
1.154181100E1,-5.713117123E-1,4.488332272E-1,-2.025018334E-1
1.155181100E1,-6.044511795E-1,4.405865669E-1,-1.539380401E-1
1.156181100E1,-6.611089110E-1,3.755294085E-1,-9.697485715E-2
1.157181100E1,-7.312057018E-1,2.477058619E-1,-3.375030309E-2
1.158181100E1,-7.736608386E-1,9.162978828E-2,3.924809024E-2
1.159181100E1,-8.011497855E-1,-2.809980139E-2,8.185594529E-2
1.160181100E1,-8.442157507E-1,-1.246165112E-1,1.146899462E-1
1.161181100E1,-8.749117255E-1,-1.438587606E-1,1.327104717E-1
1.162181100E1,-8.878926635E-1,-8.689557761E-2,1.192714423E-1
1.163181100E1,-8.828529716E-1,-4.810563847E-2,1.033889428E-1
1.164181100E1,-8.448266387E-1,1.099557430E-2,8.643743396E-2
1.165181100E1,-7.738135457E-1,7.238753140E-2,6.123924255E-2
1.166181100E1,-6.982190013E-1,1.046106741E-1,4.566217586E-2
1.167181100E1,-5.824599862E-1,1.365283877E-1,2.565634064E-2
1.168181100E1,-4.485278130E-1,1.731802970E-1,2.153299935E-2
1.169181100E1,-3.136793077E-1,1.977676302E-1,3.924809024E-2
1.170181100E1,-2.151772827E-1,2.044871449E-1,6.047565863E-2
1.171181100E1,-1.204931661E-1,1.942551434E-1,8.292495459E-2
1.172181100E1,-5.513058975E-2,1.660026312E-1,1.065959856E-1
1.173181100E1,-2.382374369E-2,1.330159009E-1,1.275181174E-1
1.174181100E1,-2.153299935E-2,1.101084575E-1,1.495092660E-1
1.175181100E1,-2.306016348E-2,9.437867999E-2,1.762346178E-1
1.176181100E1,-3.787364438E-2,9.575312585E-2,2.090686262E-1
1.177181100E1,-3.191770986E-2,1.090394482E-1,2.371684313E-1
1.178181100E1,-7.635815535E-3,1.440114826E-1,2.677116990E-1
1.179181100E1,4.841107130E-2,1.837177277E-1,2.802344263E-1
1.180181100E1,9.498954564E-2,2.597704530E-1,2.657263875E-1
1.181181100E1,1.244637966E-1,3.178026378E-1,2.561052442E-1
1.182181100E1,1.660026312E-1,3.283400834E-1,2.391537428E-1
1.183181100E1,1.950187236E-1,2.736676335E-1,2.174680233E-1
1.184181100E1,2.058615834E-1,1.910481006E-1,1.945605874E-1
1.185181100E1,1.959350258E-1,1.207986027E-1,1.750128865E-1
1.186181100E1,1.580613852E-1,2.886338346E-2,1.542434692E-1
1.187181100E1,9.819658846E-2,-5.558873713E-2,1.466076523E-1
1.188181100E1,2.489275858E-2,-1.496619880E-1,1.511891484E-1
1.189181100E1,-2.535090782E-2,-2.159408629E-1,1.669189334E-1
1.190181100E1,-8.185594529E-2,-2.820670307E-1,2.177734673E-1
1.191181100E1,-1.258382350E-1,-2.733621895E-1,2.492330223E-1
1.192181100E1,-1.148426682E-1,-2.139555514E-1,2.736676335E-1
1.193181100E1,-1.160643995E-1,-1.690569520E-1,3.065016270E-1
1.194181100E1,-2.183843255E-1,-1.939497143E-2,2.277000248E-1
1.195181100E1,-3.417791128E-1,2.368630022E-1,8.903361112E-2
1.196181100E1,-3.582724631E-1,2.599231601E-1,1.939497143E-2
1.197181100E1,-2.842050493E-1,5.803219974E-2,-8.842274547E-2
1.198181100E1,-1.789835095E-1,-2.177734673E-1,-1.727221459E-1
1.199181100E1,-8.093964309E-2,-4.208861589E-1,-2.194533348E-1
1.200181100E1,-1.069014193E-3,-5.256495476E-1,-2.139555514E-1
1.201181100E1,6.017022580E-2,-6.423248053E-1,-1.708895564E-1
1.202181100E1,6.078109145E-2,-7.089090943E-1,-1.075122803E-1
1.203181100E1,3.130684420E-2,-6.783658266E-1,-3.940080851E-2
1.204181100E1,1.175915636E-2,-5.569564104E-1,5.543602258E-2
1.205181100E1,2.138028294E-2,-4.222606122E-1,1.369865239E-1
1.206181100E1,3.497203439E-2,-2.634356320E-1,2.063197345E-1
1.207181100E1,5.711590126E-2,-1.035416573E-1,2.719877362E-1
1.208181100E1,1.026253626E-1,9.376781434E-2,3.037527502E-1
1.209181100E1,1.912008226E-1,3.161227703E-1,2.918408811E-1
1.210181100E1,2.860376537E-1,5.335907936E-1,2.286163121E-1
1.211181100E1,3.452915847E-1,6.627888083E-1,1.740965992E-1
1.212181100E1,3.750712574E-1,7.341073155E-1,1.094975919E-1
1.213181100E1,3.546072841E-1,7.110471725E-1,7.162395120E-2
1.214181100E1,3.129157126E-1,6.082690954E-1,5.940664560E-2
1.215181100E1,2.770273983E-1,4.595233798E-1,5.451972410E-2
1.216181100E1,2.542726696E-1,2.318233550E-1,6.062837690E-2
1.217181100E1,2.290744632E-1,2.229658142E-2,7.544185966E-2
1.218181100E1,2.284636050E-1,-1.243110746E-1,8.536841720E-2
1.219181100E1,2.779437006E-1,-2.130392492E-1,9.422596544E-2
1.220181100E1,3.593414724E-1,-2.014328092E-1,9.957103431E-2
1.221181100E1,4.738787115E-1,-1.415680200E-1,1.111774743E-1
1.222181100E1,5.604688525E-1,-5.375614017E-2,1.078177169E-1
1.223181100E1,6.414085031E-1,7.788532227E-2,9.468411654E-2
1.224181100E1,6.795876026E-1,1.782199293E-1,6.811147183E-2
1.225181100E1,6.753115058E-1,2.484694421E-1,1.679879427E-2
1.226181100E1,6.501133442E-1,2.727513313E-1,-1.878410578E-2
1.227181100E1,5.749769211E-1,2.513710558E-1,-6.062837690E-2
1.228181100E1,4.778493345E-1,2.215913683E-1,-1.122464910E-1
1.229181100E1,3.868304193E-1,2.185370475E-1,-1.505782902E-1
1.230181100E1,2.715296149E-1,2.034181207E-1,-1.853975952E-1
1.231181100E1,1.620320082E-1,1.676825136E-1,-2.054034323E-1
1.232181100E1,6.582073122E-2,1.198823079E-1,-2.180788964E-1
1.233181100E1,4.886921961E-3,7.177666575E-2,-2.171625942E-1
1.234181100E1,-5.742133409E-2,1.282817032E-2,-2.125810981E-1
1.235181100E1,-1.136209369E-1,-4.749477282E-2,-2.078468949E-1
1.236181100E1,-1.539380401E-1,-9.682214260E-2,-1.996002197E-1
1.237181100E1,-1.698205322E-1,-1.209513173E-1,-1.947132945E-1
1.238181100E1,-1.808161139E-1,-1.379028261E-1,-1.971567571E-1
1.239181100E1,-1.857030392E-1,-1.463022232E-1,-2.044871449E-1
1.240181100E1,-1.820378453E-1,-1.452332139E-1,-2.179261744E-1
1.241181100E1,-1.684460938E-1,-1.235474944E-1,-2.446515262E-1
1.242181100E1,-1.424843222E-1,-7.284568250E-2,-2.725986242E-1
1.243181100E1,-1.093448773E-1,-1.481348183E-2,-2.846632004E-1
1.244181100E1,-8.613199741E-2,2.977968007E-2,-2.785545588E-1
1.245181100E1,-6.536258012E-2,7.345654815E-2,-2.528982162E-1
1.246181100E1,-3.634648025E-2,9.987647086E-2,-2.223549485E-1
1.247181100E1,7.330383174E-3,1.093448773E-1,-1.841758788E-1
1.248181100E1,5.574145541E-2,1.018617824E-1,-1.571450830E-1
1.249181100E1,1.197295859E-1,4.444044828E-2,-1.287398487E-1
1.250181100E1,1.776090711E-1,-5.757404864E-2,-1.136209369E-1
1.251181100E1,2.257147133E-1,-1.840231568E-1,-1.119410545E-1
1.252181100E1,2.643519342E-1,-2.872593701E-1,-1.153008118E-1
1.253181100E1,3.101668358E-1,-3.943135142E-1,-1.307251602E-1
1.254181100E1,3.552181423E-1,-4.346306324E-1,-1.634064466E-1
1.255181100E1,3.943135142E-1,-4.749477208E-1,-2.069306076E-1
1.256181100E1,4.929682612E-1,-5.216789246E-1,-2.660318017E-1
1.257181100E1,6.042984724E-1,-3.381139040E-1,-2.522873580E-1
1.258181100E1,6.157521605E-1,-1.078177169E-1,-1.915062517E-1
1.259181100E1,6.091853380E-1,-1.270599663E-1,-1.281289905E-1
1.260181100E1,5.583308339E-1,-2.782491148E-1,-7.712173462E-2
1.261181100E1,4.844161272E-1,-3.952298164E-1,4.276056774E-3
1.262181100E1,3.851505518E-1,-4.294382632E-1,1.110247597E-1
1.263181100E1,2.959642112E-1,-4.398229718E-1,1.701259762E-1
1.264181100E1,2.228130996E-1,-4.343251884E-1,2.124283910E-1
1.265181100E1,1.875356287E-1,-4.256203473E-1,2.267837226E-1
1.266181100E1,1.473712474E-1,-4.011857510E-1,2.254092693E-1
1.267181100E1,3.955352306E-2,-3.459024429E-1,2.076941878E-1
1.268181100E1,-7.773260027E-2,-2.750420868E-1,1.496619880E-1
1.269181100E1,-1.826487035E-1,-1.860084683E-1,5.146539584E-2
1.270181100E1,-2.425135076E-1,-9.117163718E-2,-2.825251780E-2
1.271181100E1,-2.961169183E-1,5.085453019E-2,-1.188132912E-1
1.272181100E1,-3.535382748E-1,2.014328092E-1,-1.828014255E-1
1.273181100E1,-4.014911950E-1,3.459024429E-1,-2.160935849E-1
1.274181100E1,-4.204280078E-1,4.453207552E-1,-2.333505303E-1
1.275181100E1,-4.016439021E-1,5.445863605E-1,-2.614503205E-1
1.276181100E1,-3.597996235E-1,5.951354504E-1,-2.953533530E-1
1.277181100E1,-3.283400834E-1,5.682573915E-1,-3.060434759E-1
1.278181100E1,-3.129157126E-1,4.725042582E-1,-2.997821271E-1
1.279181100E1,-3.222314119E-1,3.003929853E-1,-2.655736506E-1
1.280181100E1,-3.668245673E-1,1.722639948E-1,-2.229658216E-1
1.281181100E1,-4.149302244E-1,6.963863969E-2,-1.670716405E-1
1.282181100E1,-4.912883639E-1,-3.878994286E-2,-9.300423414E-2
1.283181100E1,-5.563455224E-1,-9.285151958E-2,-2.504547499E-2
1.284181100E1,-6.027712822E-1,-9.605856240E-2,1.725694351E-2
1.285181100E1,-6.198754907E-1,-7.528914511E-2,4.398229718E-2
1.286181100E1,-6.136141419E-1,1.069014147E-2,6.704246253E-2
1.287181100E1,-5.998696685E-1,9.789115191E-2,6.704246253E-2
1.288181100E1,-5.581781268E-1,2.018909603E-1,7.315111160E-2
1.289181100E1,-5.082398653E-1,2.693915665E-1,8.445212245E-2
1.290181100E1,-4.167627990E-1,3.306308091E-1,9.086620808E-2
1.291181100E1,-3.145956099E-1,3.602577746E-1,1.061378345E-1
1.292181100E1,-2.393064648E-1,3.562871516E-1,1.113301888E-1
1.293181100E1,-1.554652005E-1,3.229950070E-1,1.107193232E-1
1.294181100E1,-8.643743396E-2,2.631302178E-1,1.123992056E-1
1.295181100E1,-3.084869497E-2,1.936442852E-1,1.212567538E-1
1.296181100E1,4.123340361E-3,1.450804919E-1,1.362229437E-1
1.297181100E1,3.054326214E-2,9.392052889E-2,1.656972021E-1
1.298181100E1,4.123340547E-2,7.223481685E-2,1.997529417E-1
1.299181100E1,2.993239649E-2,6.872233748E-2,2.472477108E-1
1.300181100E1,4.337143153E-2,8.307767659E-2,2.594650090E-1
1.301181100E1,7.513642311E-2,1.302670091E-1,2.571742535E-1
1.302181100E1,9.010262042E-2,1.979203373E-1,2.475531399E-1
1.303181100E1,9.269879758E-2,2.499966025E-1,2.425135076E-1
1.304181100E1,8.903361112E-2,2.524400651E-1,2.412917763E-1
1.305181100E1,8.888089657E-2,2.101376504E-1,2.463314086E-1
1.306181100E1,7.773260027E-2,1.313360333E-1,2.426662147E-1
1.307181100E1,5.436700583E-2,7.086037099E-2,2.376265824E-1
1.308181100E1,-9.162978269E-3,1.069014193E-3,2.313652188E-1
1.309181100E1,-1.029307917E-1,-6.261368841E-2,2.296853364E-1
1.310181100E1,-1.945605874E-1,-1.371392459E-1,2.438879460E-1
1.311181100E1,-2.521346211E-1,-2.095267773E-1,2.680171132E-1
1.312181100E1,-3.135266006E-1,-3.023782969E-1,3.090978265E-1
1.313181100E1,-3.604104817E-1,-3.746131063E-1,3.759875596E-1
1.314181100E1,-3.984368443E-1,-3.500257730E-1,4.318817258E-1
1.315181100E1,-4.189008474E-1,-2.541199327E-1,4.645630121E-1
1.316181100E1,-4.250094891E-1,-1.679879427E-1,5.265658498E-1
1.317181100E1,-5.189300179E-1,-2.321287990E-2,4.550946057E-1
1.318181100E1,-6.284276247E-1,1.711949855E-1,3.885102868E-1
1.319181100E1,-6.241515875E-1,2.596177161E-1,3.518583775E-1
1.320181100E1,-4.961752892E-1,1.072068512E-1,2.150245607E-1
1.321181100E1,-3.356704414E-1,-1.134682223E-1,6.505715102E-2
1.322181100E1,-2.419026345E-1,-2.536617815E-1,-3.772092983E-2
1.323181100E1,-1.737911552E-1,-3.656028509E-1,-1.140790880E-1
1.324181100E1,-1.472185254E-1,-4.288274050E-1,-1.284344196E-1
1.325181100E1,-1.154535338E-1,-4.036292136E-1,-1.172861308E-1
1.326181100E1,-4.367686436E-2,-3.422372639E-1,-1.047633886E-1
1.327181100E1,7.819075137E-2,-2.593123019E-1,-9.697485715E-2
1.328181100E1,1.954768747E-1,-1.243110746E-1,-7.925976813E-2
1.329181100E1,2.976440787E-1,1.084285788E-2,-1.924225502E-2
1.330181100E1,4.134030640E-1,1.617265791E-1,5.681046844E-2
1.331181100E1,4.961752892E-1,2.811507285E-1,9.987647086E-2
1.332181100E1,5.291619897E-1,3.597996235E-1,1.279762685E-1
1.333181100E1,5.132794976E-1,3.854559660E-1,1.557706445E-1
1.334181100E1,4.644103050E-1,3.906483352E-1,1.921171248E-1
1.335181100E1,4.046982229E-1,3.619376719E-1,2.113593817E-1
1.336181100E1,3.437644243E-1,3.526219726E-1,2.047925740E-1
1.337181100E1,3.107776940E-1,3.068070710E-1,2.035708427E-1
1.338181100E1,3.142901659E-1,2.170098722E-1,1.866193265E-1
1.339181100E1,3.289509416E-1,1.307251602E-1,1.209513173E-1
1.340181100E1,3.741549551E-1,8.078692853E-2,4.932736978E-2
1.341181100E1,4.266893864E-1,8.277224004E-2,2.138028387E-3
1.342181100E1,5.135849714E-1,1.197295859E-1,-4.734205827E-2
1.343181100E1,6.061310172E-1,1.505782902E-1,-7.009678334E-2
1.344181100E1,6.672175527E-1,1.707368344E-1,-8.429940045E-2
1.345181100E1,7.208209634E-1,1.933388561E-1,-9.743300825E-2
1.346181100E1,7.331910133E-1,2.066251636E-1,-1.230893433E-1
1.347181100E1,7.139487267E-1,2.163990140E-1,-1.560760736E-1
1.348181100E1,6.751587987E-1,2.081523389E-1,-1.745547503E-1
1.349181100E1,6.047565937E-1,1.867720485E-1,-1.944078654E-1
1.350181100E1,5.099197626E-1,1.594358236E-1,-2.168571651E-1
1.351181100E1,4.101960063E-1,1.310305893E-1,-2.295326144E-1
1.352181100E1,3.310889602E-1,1.157589629E-1,-2.312124968E-1
1.353181100E1,2.396118939E-1,8.353582025E-2,-2.231185287E-1
1.354181100E1,1.627955884E-1,4.046982154E-2,-2.162462920E-1
1.355181100E1,1.116356254E-1,-2.901609987E-3,-2.163990140E-1
1.356181100E1,6.414084882E-2,-5.100724846E-2,-2.312124968E-1
1.357181100E1,2.886338346E-2,-8.597928286E-2,-2.521346211E-1
1.358181100E1,1.435533352E-2,-9.315694869E-2,-2.814561725E-1
1.359181100E1,1.572977938E-2,-9.208793938E-2,-3.071125150E-1
1.360181100E1,2.336559631E-2,-8.002334833E-2,-3.375030458E-1
1.361181100E1,3.084869497E-2,-6.429356337E-2,-3.666718602E-1
1.362181100E1,3.955352306E-2,-5.238169432E-2,-3.886630237E-1
1.363181100E1,5.054909736E-2,-4.871650413E-2,-4.007275999E-1
1.364181100E1,7.620543987E-2,-3.313944116E-2,-4.054618180E-1
1.365181100E1,1.041525230E-1,-1.389718428E-2,-3.859141171E-1
1.366181100E1,1.295034289E-1,1.679879380E-3,-3.491095006E-1
1.367181100E1,1.536326110E-1,8.857546374E-3,-3.149010241E-1
1.368181100E1,1.922698319E-1,2.687807009E-2,-2.587014437E-1
1.369181100E1,2.564106882E-1,3.619376570E-2,-2.107485086E-1
1.370181100E1,3.207042515E-1,1.649336144E-2,-1.884519309E-1
1.371181100E1,3.955352604E-1,-7.727445662E-2,-1.733330190E-1
1.372181100E1,4.644103050E-1,-2.196060568E-1,-1.715004146E-1
1.373181100E1,5.282457471E-1,-3.811798990E-1,-1.794416606E-1
1.374181100E1,5.789475441E-1,-4.833471179E-1,-1.937969923E-1
1.375181100E1,6.398813725E-1,-5.164865851E-1,-2.226603776E-1
1.376181100E1,7.179193497E-1,-5.510004759E-1,-2.758056521E-1
1.377181100E1,8.497135639E-1,-4.331034720E-1,-2.945897579E-1
1.378181100E1,8.930850029E-1,-1.715004146E-1,-2.556470931E-1
1.379181100E1,8.628471494E-1,5.421429127E-2,-1.403462887E-1
1.380181100E1,8.043568134E-1,-4.688390717E-2,1.786780916E-2
1.381181100E1,7.082982659E-1,-2.182316035E-1,1.039998084E-1
1.382181100E1,5.746715069E-1,-3.420845270E-1,2.093740702E-1
1.383181100E1,4.665483236E-1,-4.079052806E-1,3.405573666E-1
1.384181100E1,4.149302244E-1,-4.838052690E-1,3.842342496E-1
1.385181100E1,3.856086731E-1,-5.393940210E-1,3.694207668E-1
1.386181100E1,3.590360582E-1,-5.816964507E-1,3.168863356E-1
1.387181100E1,3.350595832E-1,-6.059783101E-1,2.412917763E-1
1.388181100E1,3.016147017E-1,-6.180428863E-1,1.400408596E-1
1.389181100E1,2.585487068E-1,-5.948300362E-1,3.619376570E-2
1.390181100E1,1.953241676E-1,-5.061018467E-1,-1.044579595E-1
1.391181100E1,1.627955884E-1,-3.692680299E-1,-2.608394623E-1
1.392181100E1,1.603521258E-1,-2.287690341E-1,-3.718642294E-1
1.393181100E1,1.800525337E-1,-3.390302137E-2,-4.865541756E-1
1.394181100E1,1.823432744E-1,1.598939747E-1,-5.294674635E-1
1.395181100E1,1.647808999E-1,3.903428912E-1,-5.090034604E-1
1.396181100E1,1.615738571E-1,5.539020896E-1,-4.763221741E-1
1.397181100E1,1.713477075E-1,6.582072973E-1,-4.216497242E-1
1.398181100E1,1.698205322E-1,6.583600044E-1,-3.558290005E-1
1.399181100E1,1.350012124E-1,5.774203539E-1,-2.997821271E-1
1.400181100E1,9.773843735E-2,4.395175576E-1,-2.573269904E-1
1.401181100E1,4.444044828E-2,2.302961946E-1,-2.206750661E-1
1.402181100E1,-2.092213556E-2,3.313944116E-2,-1.916589737E-1
1.403181100E1,-8.613199741E-2,-1.117883399E-1,-1.710422635E-1
1.404181100E1,-1.327104717E-1,-1.817324162E-1,-1.603521258E-1
1.405181100E1,-1.789835095E-1,-2.032654136E-1,-1.531744599E-1
1.406181100E1,-2.104430795E-1,-1.667662114E-1,-1.522581577E-1
1.407181100E1,-2.234239578E-1,-1.108720452E-1,-1.730275750E-1
1.408181100E1,-2.084577680E-1,-3.833179548E-2,-2.084577680E-1
1.409181100E1,-1.690569520E-1,3.894266114E-2,-2.327396572E-1
1.410181100E1,-1.079704314E-1,1.076650023E-1,-2.214386463E-1
1.411181100E1,-4.841107130E-2,1.582140923E-1,-1.980730593E-1
1.412181100E1,3.909537569E-2,2.000583708E-1,-1.658499092E-1
1.413181100E1,1.203404516E-1,1.996002197E-1,-1.325577646E-1
1.414181100E1,1.965458989E-1,1.725694388E-1,-8.949175477E-2
1.415181100E1,2.449569702E-1,1.346957833E-1,-5.253441259E-2
1.416181100E1,2.785545588E-1,8.246681094E-2,-1.817324013E-2
1.417181100E1,2.976440787E-1,4.718934000E-2,1.970040426E-2
1.418181100E1,2.985603809E-1,2.794708498E-2,6.123924255E-2
1.419181100E1,3.029891551E-1,2.550362423E-2,1.258382350E-1
1.420181100E1,2.977968156E-1,4.993823543E-2,1.843285859E-1
1.421181100E1,2.890919745E-1,8.765916526E-2,2.426662147E-1
1.422181100E1,2.878702581E-1,1.313360333E-1,2.742784917E-1
1.423181100E1,2.903137207E-1,2.028072625E-1,3.083342314E-1
1.424181100E1,2.953533530E-1,2.828305960E-1,3.436116874E-1
1.425181100E1,3.014619946E-1,3.506366611E-1,3.593414724E-1
1.426181100E1,3.075706363E-1,3.688098788E-1,3.654501438E-1
1.427181100E1,3.220787048E-1,3.408628106E-1,3.656028509E-1
1.428181100E1,3.390302062E-1,2.971859276E-1,3.596469164E-1
1.429181100E1,3.475823104E-1,2.751947939E-1,3.329215646E-1
1.430181100E1,3.356704414E-1,2.667953968E-1,2.962696552E-1
1.431181100E1,2.750420868E-1,2.295326144E-1,2.386955917E-1
1.432181100E1,1.960877478E-1,1.487456858E-1,1.774563491E-1
1.433181100E1,1.559233516E-1,5.192354694E-2,1.261436790E-1
1.434181100E1,1.140790880E-1,-9.575312585E-2,1.127046347E-1
1.435181100E1,9.162978828E-2,-2.397646159E-1,1.188132912E-1
1.436181100E1,5.574145541E-2,-3.474296033E-1,1.455386430E-1
1.437181100E1,9.315694682E-3,-3.604104817E-1,1.660026312E-1
1.438181100E1,1.053742506E-2,-2.887865305E-1,2.049452960E-1
1.439181100E1,-8.704829961E-3,-2.049452960E-1,2.388483137E-1
1.440181100E1,-1.230893433E-1,-2.748893574E-2,1.490511149E-1
1.441181100E1,-1.733330190E-1,1.424843222E-1,1.363756657E-1
1.442181100E1,-1.244637966E-1,1.664607823E-1,9.880745411E-2
1.443181100E1,1.267545391E-2,-2.000583708E-2,3.039054573E-2
1.444181100E1,1.351539344E-1,-2.293798923E-1,-3.084869497E-2
1.445181100E1,2.953533530E-1,-4.329507351E-1,-1.027780771E-1
1.446181100E1,4.396702647E-1,-5.416847467E-1,-1.285871267E-1
1.447181100E1,5.282457471E-1,-6.186537743E-1,-1.365283877E-1
1.448181100E1,5.587889552E-1,-6.200281978E-1,-1.461495161E-1
1.449181100E1,6.113234162E-1,-5.429064631E-1,-1.447750628E-1
1.450181100E1,6.991352439E-1,-4.524984360E-1,-1.249219403E-1
1.451181100E1,8.028296232E-1,-3.452915847E-1,-1.195768714E-1
1.452181100E1,9.016370773E-1,-2.525927722E-1,-1.227839142E-1
1.453181100E1,1.023810148E0,-8.857546002E-2,-1.076650023E-1
1.454181100E1,1.142470717E0,1.435533315E-1,-7.070764899E-2
1.455181100E1,1.235169530E0,2.799290121E-1,-4.474587739E-2
1.456181100E1,1.303586483E0,3.388774991E-1,-5.650503561E-2
1.457181100E1,1.325577617E0,3.144428730E-1,-7.956519723E-2
1.458181100E1,1.312138557E0,2.454151064E-1,-1.015563458E-1
1.459181100E1,1.297477722E0,2.115120888E-1,-1.149953827E-1
1.460181100E1,1.263116598E0,1.207986027E-1,-1.308778822E-1
1.461181100E1,1.270294309E0,-5.345070735E-3,-1.941024363E-1
1.462181100E1,1.314123869E0,-1.075122803E-1,-2.582432926E-1
1.463181100E1,1.366658211E0,-1.624901593E-1,-3.005456924E-1
1.464181100E1,1.441947460E0,-1.896736622E-1,-3.379611969E-1
1.465181100E1,1.526399493E0,-1.588249654E-1,-3.703370690E-1
1.466181100E1,1.617876649E0,-1.049161032E-1,-4.028656185E-1
1.467181100E1,1.691027761E0,-5.925392732E-2,-4.170682430E-1
1.468181100E1,1.777770638E0,-1.145372353E-2,-4.214970171E-1
1.469181100E1,1.821447492E0,9.010262787E-3,-4.225660264E-1
1.470181100E1,1.835039139E0,2.947424725E-2,-4.370740950E-1
1.471181100E1,1.819462180E0,3.313944116E-2,-4.834998548E-1
1.472181100E1,1.772578239E0,5.757404864E-2,-5.422956347E-1
1.473181100E1,1.697441816E0,8.338310570E-2,-5.853615999E-1
1.474181100E1,1.637118816E0,1.128573567E-1,-6.149885654E-1
1.475181100E1,1.542587519E0,1.557706445E-1,-6.423248053E-1
1.476181100E1,1.441794753E0,1.831068546E-1,-6.514877677E-1
1.477181100E1,1.340849161E0,1.824959964E-1,-6.496551633E-1
1.478181100E1,1.260367751E0,1.612684280E-1,-6.403394938E-1
1.479181100E1,1.179886222E0,1.412625909E-1,-6.285803318E-1
1.480181100E1,1.111774802E0,1.223257631E-1,-6.215553880E-1
1.481181100E1,1.072679400E0,1.030835137E-1,-6.206390858E-1
1.482181100E1,1.038623691E0,7.788532227E-2,-6.256787181E-1
1.483181100E1,1.010829210E0,5.986479297E-2,-6.415612102E-1
1.484181100E1,9.828822017E-1,5.390885845E-2,-6.575964093E-1
1.485181100E1,9.561568499E-1,5.650503561E-2,-6.663012505E-1
1.486181100E1,9.184358716E-1,5.925392732E-2,-6.762278080E-1
1.487181100E1,8.503243923E-1,4.138612002E-2,-6.728680730E-1
1.488181100E1,8.051204085E-1,3.329215571E-2,-6.536257863E-1
1.489181100E1,7.843509912E-1,4.917465150E-2,-6.307183504E-1
1.490181100E1,7.660250068E-1,7.360926270E-2,-5.893322229E-1
1.491181100E1,7.560984492E-1,8.827003092E-2,-5.540547967E-1
1.492181100E1,7.475463152E-1,9.437867999E-2,-5.358815193E-1
1.493181100E1,7.438811660E-1,1.029307917E-1,-5.285511613E-1
1.494181100E1,7.620543838E-1,1.186605766E-1,-5.151121020E-1
1.495181100E1,7.896960378E-1,1.015563458E-1,-4.772384763E-1
1.496181100E1,8.124507666E-1,3.359758854E-2,-4.502076805E-1
1.497181100E1,8.408560157E-1,-1.180497110E-1,-4.242459238E-1
1.498181100E1,8.704829812E-1,-3.097086847E-1,-4.152356386E-1
1.499181100E1,8.915578127E-1,-5.207626224E-1,-4.173736870E-1
1.500181100E1,9.068294764E-1,-6.566801667E-1,-4.195117056E-1
1.501181100E1,9.274461865E-1,-7.052439451E-1,-4.376849532E-1
1.502181100E1,9.876163602E-1,-6.597344875E-1,-4.983133376E-1
1.503181100E1,1.105207920E0,-4.689917862E-1,-5.320636034E-1
1.504181100E1,1.165530920E0,-1.942551434E-1,-4.807509482E-1
1.505181100E1,1.146288633E0,3.634648025E-2,-3.532328308E-1
1.506181100E1,1.100015640E0,-4.795292020E-2,-2.011273801E-1
1.507181100E1,1.025642753E0,-2.145664245E-1,-8.063421398E-2
1.508181100E1,8.794932365E-1,-3.770565689E-1,4.184427112E-2
1.509181100E1,7.535023093E-1,-4.549418986E-1,1.178969890E-1
1.510181100E1,6.876815557E-1,-4.616613984E-1,1.444696337E-1
1.511181100E1,6.829473376E-1,-4.361577928E-1,1.357648075E-1
1.512181100E1,7.331910133E-1,-4.014911950E-1,8.002334833E-2
1.513181100E1,8.200865984E-1,-3.863722682E-1,8.552113548E-3
1.514181100E1,8.718574047E-1,-4.062253833E-1,-1.020144969E-1
1.515181100E1,8.736900091E-1,-4.028656185E-1,-2.177734673E-1
1.516181100E1,8.394815922E-1,-3.530801237E-1,-3.459024429E-1
1.517181100E1,7.796167731E-1,-3.055853248E-1,-4.682282209E-1
1.518181100E1,7.209737301E-1,-2.327396572E-1,-5.661193728E-1
1.519181100E1,6.551529765E-1,-1.075122803E-1,-6.714936495E-1
1.520181100E1,6.038402915E-1,5.742133409E-2,-7.341073155E-1
1.521181100E1,5.598580241E-1,2.590068579E-1,-7.516697049E-1
1.522181100E1,5.311473012E-1,4.567744732E-1,-7.215845585E-1
1.523181100E1,5.280929804E-1,6.944010854E-1,-6.548475623E-1
1.524181100E1,5.233588219E-1,8.460483551E-1,-5.830708742E-1
1.525181100E1,4.899139404E-1,8.294022679E-1,-5.028948188E-1
1.526181100E1,4.393648207E-1,7.170031071E-1,-4.567744732E-1
1.527181100E1,3.506366611E-1,4.886921942E-1,-4.143193662E-1
1.528181100E1,2.290744632E-1,2.301434875E-1,-3.720169365E-1
1.529181100E1,1.148426682E-1,2.977968007E-2,-3.225368559E-1
1.530181100E1,4.596760869E-2,-1.006400511E-1,-2.788599730E-1
1.531181100E1,-1.053742506E-2,-2.020436823E-1,-2.449569702E-1
1.532181100E1,-2.901609987E-2,-2.492330223E-1,-2.449569702E-1
1.533181100E1,-2.397646010E-2,-2.322815061E-1,-2.645046413E-1
1.534181100E1,2.031126991E-2,-1.574505121E-1,-3.081815243E-1
1.535181100E1,9.636399150E-2,-5.253441259E-2,-3.455969989E-1
1.536181100E1,1.893682331E-1,5.589416996E-2,-3.585779071E-1
1.537181100E1,2.649627924E-1,1.426370293E-1,-3.546072841E-1
1.538181100E1,3.517056704E-1,2.220495194E-1,-3.481931984E-1
1.539181100E1,4.111123085E-1,2.350303978E-1,-3.112358451E-1
1.540181100E1,4.508185387E-1,2.336559594E-1,-2.635883391E-1
1.541181100E1,4.688390791E-1,2.154827118E-1,-2.390010208E-1
1.542181100E1,4.721988440E-1,1.924225539E-1,-2.061670274E-1
1.543181100E1,4.511239827E-1,1.623374373E-1,-1.550070494E-1
1.544181100E1,4.251621962E-1,1.310305893E-1,-1.050688252E-1
1.545181100E1,3.796527386E-1,1.010981947E-1,-3.711006418E-2
1.546181100E1,3.294090927E-1,9.315694869E-2,2.107485011E-2
1.547181100E1,2.707660198E-1,1.142318025E-1,8.292495459E-2
1.548181100E1,2.231185287E-1,1.472185254E-1,1.288925707E-1
1.549181100E1,1.623374373E-1,2.203696370E-1,1.808161139E-1
1.550181100E1,1.064432710E-1,3.069597781E-1,2.280054539E-1
1.551181100E1,6.505715102E-2,3.775147200E-1,2.703078687E-1
1.552181100E1,5.406157300E-2,4.031710625E-1,3.019201458E-1
1.553181100E1,7.590000331E-2,3.969096839E-1,3.057380617E-1
1.554181100E1,1.220203340E-1,3.249803185E-1,2.585487068E-1
1.555181100E1,1.792889535E-1,2.154827118E-1,1.870774776E-1
1.556181100E1,2.182316035E-1,1.012509167E-1,1.166752651E-1
1.557181100E1,2.460259795E-1,-6.505715102E-2,3.420845419E-2
1.558181100E1,2.383901626E-1,-2.432770878E-1,-1.557706390E-2
1.559181100E1,2.220495194E-1,-3.813326359E-1,-1.786780916E-2
1.560181100E1,1.971567571E-1,-4.889976382E-1,3.970623948E-3
1.561181100E1,1.957823038E-1,-5.204572082E-1,1.496619824E-2
1.562181100E1,2.147191316E-1,-5.618433356E-1,7.360926270E-2
1.563181100E1,1.194241568E-1,-4.291328490E-1,1.939497143E-2
1.564181100E1,1.618792862E-2,-1.182024255E-1,-4.734205548E-3
1.565181100E1,7.269296050E-2,1.832595654E-2,-1.069014147E-2
1.566181100E1,1.942551434E-1,-8.796459436E-2,-6.841690838E-2
1.567181100E1,2.770273983E-1,-2.000583708E-1,-1.507309973E-1
1.568181100E1,3.356704414E-1,-2.782491148E-1,-2.477058619E-1
1.569181100E1,3.735440969E-1,-3.318525553E-1,-3.083342314E-1
1.570181100E1,3.967569768E-1,-3.769038618E-1,-3.387247920E-1
1.571181100E1,4.550946057E-1,-4.051563740E-1,-3.663664162E-1
1.572181100E1,5.172501206E-1,-3.619376719E-1,-3.575088978E-1
1.573181100E1,5.717698932E-1,-3.003929853E-1,-2.927571833E-1
1.574181100E1,6.007859707E-1,-2.423607856E-1,-2.243402600E-1
1.575181100E1,6.272059083E-1,-1.562287807E-1,-1.267545372E-1
1.576181100E1,6.427829266E-1,-3.008511290E-2,5.955935922E-3
1.577181100E1,6.424775124E-1,1.009454802E-1,1.178969890E-1
1.578181100E1,6.316346526E-1,2.113593817E-1,1.896736622E-1
1.579181100E1,6.024658680E-1,3.243694305E-1,2.490803003E-1
1.580181100E1,5.635231733E-1,3.767511547E-1,2.791654170E-1
1.581181100E1,5.283984542E-1,3.817907870E-1,2.716823220E-1
1.582181100E1,4.897612035E-1,3.747658134E-1,2.228130996E-1
1.583181100E1,4.908302128E-1,2.935207486E-1,1.936442852E-1
1.584181100E1,5.212207437E-1,1.853975952E-1,1.330159009E-1
1.585181100E1,5.664247870E-1,1.098030284E-1,5.528330430E-2
1.586181100E1,6.395758986E-1,5.100724846E-2,-2.947424725E-2
1.587181100E1,7.336491346E-1,4.306599870E-2,-1.032362282E-1
1.588181100E1,8.254316449E-1,9.208793938E-2,-1.504255682E-1
1.589181100E1,8.875871897E-1,1.159116775E-1,-1.719585657E-1
1.590181100E1,9.303477407E-1,1.423316002E-1,-1.875356287E-1
1.591181100E1,9.388998747E-1,1.409571618E-1,-1.936442852E-1
1.592181100E1,9.071348906E-1,1.241583601E-1,-1.779145002E-1
1.593181100E1,8.570439219E-1,9.544769675E-2,-1.598939747E-1
1.594181100E1,7.767151594E-1,8.139779419E-2,-1.603521258E-1
1.595181100E1,6.757696867E-1,7.849618047E-2,-1.536326110E-1
1.596181100E1,5.893322229E-1,7.422012836E-2,-1.369865239E-1
1.597181100E1,4.735732675E-1,4.108068720E-2,-1.194241568E-1
1.598181100E1,3.662137091E-1,-1.160643995E-2,-1.029307917E-1
1.599181100E1,2.736676335E-1,-5.940664560E-2,-1.070541367E-1
1.600181100E1,2.113593817E-1,-1.269072592E-1,-1.145372316E-1
1.601181100E1,1.528690308E-1,-2.174680233E-1,-1.427897513E-1
1.602181100E1,1.065959856E-1,-2.875648141E-1,-1.722639948E-1
1.603181100E1,7.620543987E-2,-3.298672438E-1,-1.991420686E-1
1.604181100E1,5.925392732E-2,-3.382666409E-1,-2.247984111E-1
1.605181100E1,4.993823543E-2,-3.115412891E-1,-2.614503205E-1
1.606181100E1,4.306599870E-2,-2.509129047E-1,-3.005456924E-1
1.607181100E1,4.474587739E-2,-1.831068546E-1,-3.262020350E-1
1.608181100E1,4.520402849E-2,-9.957103431E-2,-3.543018401E-1
1.609181100E1,4.184427112E-2,-3.283400834E-2,-3.691153228E-1
1.610181100E1,2.244929783E-2,-9.773843922E-3,-3.497203588E-1
1.611181100E1,7.483099122E-3,-3.023782931E-2,-3.156646192E-1
1.612181100E1,5.803219974E-3,-6.765332818E-2,-2.559525371E-1
1.613181100E1,4.902193695E-2,-8.231408894E-2,-1.753183305E-1
1.614181100E1,1.324050426E-1,-1.276708394E-1,-1.088867337E-1
1.615181100E1,1.999056488E-1,-2.237294018E-1,-9.132435173E-2
1.616181100E1,3.002402782E-1,-3.990477324E-1,-1.052215397E-1
1.617181100E1,4.057672322E-1,-5.535966158E-1,-1.385136992E-1
1.618181100E1,5.007568002E-1,-6.149885654E-1,-1.988366395E-1
1.619181100E1,5.690209866E-1,-6.869179606E-1,-2.703078687E-1
1.620181100E1,7.206682563E-1,-5.487096906E-1,-3.280346394E-1
1.621181100E1,8.170322776E-1,-1.214094684E-1,-3.037527502E-1
1.622181100E1,8.339837790E-1,1.069014147E-2,-2.087631971E-1
1.623181100E1,7.870998979E-1,-1.534798890E-1,-2.351831272E-2
1.624181100E1,6.902777553E-1,-4.108068645E-1,1.406517178E-1
1.625181100E1,6.039929986E-1,-5.155702829E-1,2.658790946E-1
1.626181100E1,5.340489149E-1,-5.100724697E-1,3.678936064E-1
1.627181100E1,4.825835526E-1,-4.926628172E-1,4.405865669E-1
1.628181100E1,4.266893864E-1,-4.935791194E-1,4.415028691E-1
1.629181100E1,3.446807265E-1,-4.263839424E-1,3.617849350E-1
1.630181100E1,2.631302178E-1,-3.376557529E-1,2.478585690E-1
1.631181100E1,1.708895564E-1,-2.367102802E-1,9.010262042E-2
1.632181100E1,1.090394482E-1,-1.177442744E-1,-7.498370856E-2
1.633181100E1,7.987063378E-2,-4.505131021E-2,-2.165517360E-1
1.634181100E1,6.154467165E-2,1.298088674E-2,-3.775147200E-1
1.635181100E1,3.695734590E-2,2.748893574E-2,-5.093088746E-1
1.636181100E1,-2.748893574E-3,3.741549700E-2,-5.754350424E-1
1.637181100E1,-5.268712714E-2,2.076941915E-2,-5.804746747E-1
1.638181100E1,-1.331686229E-1,3.222314268E-2,-5.285511613E-1
1.639181100E1,-2.125810981E-1,1.007927656E-1,-4.352414906E-1
1.640181100E1,-3.149010241E-1,1.779145002E-1,-3.445279896E-1
1.641181100E1,-3.990477324E-1,1.893682331E-1,-2.938261926E-1
1.642181100E1,-4.969388843E-1,1.537853181E-1,-2.394591719E-1
1.643181100E1,-5.958990455E-1,9.743300825E-2,-1.948660165E-1
1.644181100E1,-6.424775124E-1,5.054909736E-2,-1.501201391E-1
1.645181100E1,-6.879869699E-1,2.794708498E-2,-9.056077152E-2
1.646181100E1,-7.086036801E-1,9.957103431E-2,-5.299255997E-2
1.647181100E1,-6.890559793E-1,1.553124934E-1,-2.244929783E-2
1.648181100E1,-6.464481354E-1,2.011273801E-1,-1.527163084E-3
1.649181100E1,-5.855143666E-1,2.455678284E-1,3.665191587E-3
1.650181100E1,-5.148066878E-1,2.887865305E-1,-7.024950348E-3
1.651181100E1,-4.331034720E-1,3.269656301E-1,-1.389718428E-2
1.652181100E1,-3.639229834E-1,3.362813294E-1,7.177666761E-3
1.653181100E1,-2.634356320E-1,3.199406862E-1,5.772676691E-2
1.654181100E1,-1.640173197E-1,2.623666227E-1,8.750644326E-2
1.655181100E1,-7.681630552E-2,2.012801021E-1,9.544769675E-2
1.656181100E1,-1.863138936E-2,1.560760736E-1,9.712757170E-2
1.657181100E1,4.917465150E-2,1.059851199E-1,1.096503139E-1
1.658181100E1,1.000291854E-1,6.688974798E-2,1.307251602E-1
1.659181100E1,1.204931661E-1,5.818491429E-2,1.467603743E-1
1.660181100E1,1.276708394E-1,6.429356337E-2,1.795943826E-1
1.661181100E1,1.178969890E-1,8.872817457E-2,2.099849284E-1
1.662181100E1,1.388191283E-1,1.757764816E-1,2.160935849E-1
1.663181100E1,1.621847153E-1,2.678644061E-1,2.344195396E-1
1.664181100E1,1.867720485E-1,3.743076921E-1,2.551889420E-1
1.665181100E1,2.234239578E-1,3.898847401E-1,2.443460971E-1
1.666181100E1,2.281581759E-1,3.000875413E-1,2.104430795E-1
1.667181100E1,2.084577680E-1,1.861611903E-1,1.737911552E-1
1.668181100E1,1.510364264E-1,4.841107130E-2,1.285871267E-1
1.669181100E1,7.910704613E-2,-5.543602258E-2,7.956519723E-2
1.670181100E1,2.794708498E-2,-1.302670091E-1,6.230825558E-2
1.671181100E1,-4.902193695E-2,-2.110539377E-1,6.811147183E-2
1.672181100E1,-9.697485715E-2,-2.761110961E-1,1.032362282E-1
1.673181100E1,-1.262963861E-1,-2.855795026E-1,1.371392459E-1
1.674181100E1,-1.200350225E-1,-2.153300047E-1,1.469130963E-1
1.675181100E1,-5.818491429E-2,-1.937969923E-1,1.861611903E-1
1.676181100E1,-1.401935667E-1,-9.407325089E-2,1.308778822E-1
1.677181100E1,-2.774855494E-1,1.116356254E-1,3.833179548E-2
1.678181100E1,-2.527455091E-1,1.476766765E-1,-4.581489484E-4
1.679181100E1,-1.117883399E-1,-3.878994286E-2,-1.055269688E-1
1.680181100E1,2.061670274E-2,-3.101668358E-1,-2.336559594E-1
1.681181100E1,1.030835137E-1,-4.925101101E-1,-3.243694305E-1
1.682181100E1,1.539380401E-1,-5.838344693E-1,-3.544545472E-1
1.683181100E1,1.745547503E-1,-6.421720982E-1,-3.749185503E-1
1.684181100E1,2.147191316E-1,-6.120869517E-1,-3.698789179E-1
1.685181100E1,2.719877362E-1,-5.190827250E-1,-3.281873465E-1
1.686181100E1,3.463605940E-1,-3.546072841E-1,-2.463314086E-1
1.687181100E1,4.106541574E-1,-2.058615834E-1,-1.401935667E-1
1.688181100E1,4.651738703E-1,-6.902777404E-2,-1.939497143E-2
1.689181100E1,5.028948188E-1,5.451972410E-2,7.086037099E-2
1.690181100E1,5.528330207E-1,2.069306076E-1,1.441642046E-1
1.691181100E1,5.870414972E-1,3.207042515E-1,1.794416606E-1
1.692181100E1,5.896376967E-1,3.982841372E-1,2.183843255E-1
1.693181100E1,5.751296282E-1,4.421137273E-1,2.341141105E-1
1.694181100E1,5.265658498E-1,4.642575979E-1,2.277000248E-1
1.695181100E1,4.905247986E-1,4.946481287E-1,1.835650057E-1
1.696181100E1,4.517348409E-1,4.972442985E-1,1.504255682E-1
1.697181100E1,4.297437072E-1,4.198171496E-1,1.102611795E-1
1.698181100E1,4.224133193E-1,2.997821271E-1,5.299255997E-2
1.699181100E1,4.442517459E-1,2.293798923E-1,1.908953860E-2
1.700181100E1,4.893030524E-1,2.047925740E-1,-1.221730490E-3
1.701181100E1,5.671883821E-1,1.847867370E-1,-2.641992271E-2
1.702181100E1,6.462954283E-1,1.867720485E-1,-3.329215571E-2
1.703181100E1,7.166976333E-1,2.020436823E-1,-1.099557430E-2
1.704181100E1,7.338019013E-1,2.043344229E-1,-9.621127509E-3
1.705181100E1,7.082982659E-1,2.069306076E-1,-2.687807009E-2
1.706181100E1,6.574437022E-1,2.180788964E-1,-4.780020565E-2
1.707181100E1,5.968153477E-1,2.209804952E-1,-6.765332818E-2
1.708181100E1,5.262604356E-1,2.177734673E-1,-7.177666575E-2
1.709181100E1,4.376849532E-1,2.267837226E-1,-9.544769675E-2
1.710181100E1,3.588833213E-1,2.393064648E-1,-1.287398487E-1
1.711181100E1,2.956587672E-1,2.203696370E-1,-1.522581577E-1
1.712181100E1,2.203696370E-1,1.867720485E-1,-1.879937798E-1
1.713181100E1,1.595885456E-1,1.423316002E-1,-2.247984111E-1
1.714181100E1,1.098030284E-1,9.651670605E-2,-2.542726696E-1
1.715181100E1,7.696902007E-2,5.787948146E-2,-2.727513313E-1
1.716181100E1,4.031710699E-2,3.665191587E-3,-2.887865305E-1
1.717181100E1,1.832595654E-2,-4.352414981E-2,-3.010038435E-1
1.718181100E1,8.552113548E-3,-6.414084882E-2,-3.095559776E-1
1.719181100E1,6.261368748E-3,-4.841107130E-2,-3.132211566E-1
1.720181100E1,1.496619824E-2,2.443460980E-3,-3.107776940E-1
1.721181100E1,3.817907721E-2,6.414084882E-2,-3.010038435E-1
1.722181100E1,5.406157300E-2,9.804387391E-2,-2.912299931E-1
1.723181100E1,7.483099401E-2,1.185078546E-1,-2.874121070E-1
1.724181100E1,9.773843735E-2,1.207986027E-1,-2.641992271E-1
1.725181100E1,1.473712474E-1,1.169806942E-1,-2.102903575E-1
1.726181100E1,2.028072625E-1,9.239336848E-2,-1.551597714E-1
1.727181100E1,2.667953968E-1,1.450804994E-2,-1.168279797E-1
1.728181100E1,3.136793077E-1,-1.360702366E-1,-1.322523206E-1
1.729181100E1,3.558290005E-1,-3.182607889E-1,-1.829541475E-1
1.730181100E1,3.834706545E-1,-4.541783035E-1,-2.264782935E-1
1.731181100E1,4.054618180E-1,-5.283984542E-1,-2.713768780E-1
1.732181100E1,4.043927789E-1,-5.635231733E-1,-3.127630055E-1
1.733181100E1,4.350887835E-1,-5.201517344E-1,-3.407101035E-1
1.734181100E1,5.189300179E-1,-1.243110746E-1,-2.871066630E-1
1.735181100E1,5.242751241E-1,2.576324046E-1,-1.192714423E-1
1.736181100E1,4.744895697E-1,2.049452960E-1,2.428189293E-2
1.737181100E1,3.878994286E-1,-1.130100712E-2,1.203404516E-1
1.738181100E1,2.784018219E-1,-2.845104933E-1,1.540907621E-1
1.739181100E1,1.453859210E-1,-4.436408877E-1,1.401935667E-1
1.740181100E1,4.306599870E-2,-4.987714589E-1,1.298088580E-1
1.741181100E1,2.244929783E-2,-5.010622144E-1,1.298088580E-1
1.742181100E1,1.511891466E-2,-4.998404980E-1,1.224784851E-1
1.743181100E1,-2.214386500E-2,-4.535674453E-1,9.162978828E-2
1.744181100E1,-6.902777404E-2,-3.697261810E-1,5.849034712E-2
1.745181100E1,-1.110247597E-1,-3.028364480E-1,8.093964309E-3
1.746181100E1,-1.759291887E-1,-2.322815061E-1,-6.780604273E-2
1.747181100E1,-2.458732575E-1,-1.664607823E-1,-1.207986027E-1
1.748181100E1,-3.014619946E-1,-1.139263660E-1,-1.479821056E-1
1.749181100E1,-3.546072841E-1,-4.948008433E-2,-1.592831165E-1
1.750181100E1,-3.895792961E-1,2.962696366E-2,-1.595885456E-1
1.751181100E1,-4.039346576E-1,1.182024255E-1,-1.499674171E-1
1.752181100E1,-4.195117056E-1,2.163990140E-1,-1.295034289E-1
1.753181100E1,-4.324925840E-1,3.849978149E-1,-8.949175477E-2
1.754181100E1,-4.660901725E-1,5.198463202E-1,-8.139779419E-2
1.755181100E1,-5.412266254E-1,5.505422950E-1,-9.880745411E-2
1.756181100E1,-6.252205968E-1,4.795292318E-1,-1.237002090E-1
1.757181100E1,-7.299839854E-1,3.431535661E-1,-1.704314053E-1
1.758181100E1,-8.130616546E-1,2.298380435E-1,-1.864666194E-1
1.759181100E1,-8.633053303E-1,1.417207420E-1,-1.733330190E-1
1.760181100E1,-9.162978530E-1,4.260785133E-2,-1.357648075E-1
1.761181100E1,-9.323330522E-1,2.947424725E-2,-9.682214260E-2
1.762181100E1,-9.068294764E-1,7.544185966E-2,-5.772676691E-2
1.763181100E1,-8.680394888E-1,1.224784851E-1,-1.740965992E-2
1.764181100E1,-8.109236360E-1,1.707368344E-1,3.161227703E-2
1.765181100E1,-7.344127297E-1,2.151772827E-1,6.979135424E-2
1.766181100E1,-6.481280327E-1,2.570215464E-1,1.079704314E-1
1.767181100E1,-5.740606189E-1,3.014619946E-1,1.388191283E-1
1.768181100E1,-4.732678533E-1,3.263547719E-1,1.722639948E-1
1.769181100E1,-3.871358633E-1,2.955060601E-1,1.959350258E-1
1.770181100E1,-3.350595832E-1,2.637410760E-1,2.060143054E-1
1.771181100E1,-2.889392674E-1,2.124283910E-1,1.942551434E-1
1.772181100E1,-2.452623993E-1,1.624901593E-1,1.762346178E-1
1.773181100E1,-2.150245607E-1,1.307251602E-1,1.751656085E-1
1.774181100E1,-1.907426715E-1,1.293507218E-1,1.912008226E-1
1.775181100E1,-1.970040351E-1,1.356120855E-1,2.264782935E-1
1.776181100E1,-1.847867370E-1,1.646281779E-1,2.325869352E-1
1.777181100E1,-1.531744599E-1,2.116648108E-1,2.522873580E-1
1.778181100E1,-1.056796908E-1,2.623666227E-1,2.756529450E-1
1.779181100E1,-5.940664560E-2,3.190243840E-1,3.135266006E-1
1.780181100E1,-3.772092983E-2,3.080287874E-1,3.417791128E-1
1.781181100E1,-4.428773001E-2,2.038762718E-1,3.491095006E-1
1.782181100E1,-6.414084882E-2,9.239336848E-2,3.356704414E-1
1.783181100E1,-1.007927656E-1,-4.795292020E-2,2.906191349E-1
1.784181100E1,-1.508837193E-1,-1.846340150E-1,2.270891517E-1
1.785181100E1,-1.997529417E-1,-3.178026378E-1,1.879937798E-1
1.786181100E1,-2.855795026E-1,-5.135849714E-1,1.658499092E-1
1.787181100E1,-3.726277947E-1,-6.995934248E-1,1.789835095E-1
1.788181100E1,-4.413501322E-1,-7.779368758E-1,2.176207453E-1
1.789181100E1,-4.442517459E-1,-7.583891749E-1,3.199406862E-1
1.790181100E1,-4.013384581E-1,-6.940956116E-1,4.871650338E-1
1.791181100E1,-4.802927971E-1,-3.312416673E-1,5.009095073E-1
1.792181100E1,-5.671883821E-1,1.030835137E-1,4.694499373E-1
1.793181100E1,-5.784893632E-1,1.916589737E-1,3.961461186E-1
1.794181100E1,-5.207626224E-1,6.246097013E-2,2.247984111E-1
1.795181100E1,-4.584543705E-1,-1.539380401E-1,4.016438872E-2
1.796181100E1,-4.547891617E-1,-3.347541690E-1,-6.933320314E-2
1.797181100E1,-4.598288238E-1,-5.468770862E-1,-1.641700417E-1
1.798181100E1,-4.063780904E-1,-6.443101168E-1,-2.160935849E-1
1.799181100E1,-2.674062550E-1,-5.713117123E-1,-2.336559594E-1
1.800181100E1,-1.151480973E-1,-4.825835526E-1,-2.353358418E-1
1.801181100E1,8.811730891E-2,-3.831652105E-1,-1.965458989E-1
1.802181100E1,2.608394623E-1,-2.533563673E-1,-1.116356254E-1
1.803181100E1,3.932445049E-1,-7.330382615E-2,8.246680722E-3
1.804181100E1,4.639521539E-1,8.261952549E-2,8.277224004E-2
1.805181100E1,5.201517344E-1,2.435825169E-1,1.499674171E-1
1.806181100E1,5.407684445E-1,3.659082949E-1,2.182316035E-1
1.807181100E1,5.277875662E-1,4.679227769E-1,2.374738604E-1
1.808181100E1,4.961752892E-1,4.972442985E-1,2.530509233E-1
1.809181100E1,4.644103050E-1,4.853324294E-1,2.687807083E-1
1.810181100E1,4.483750761E-1,4.344778955E-1,2.590068579E-1
1.811181100E1,4.667010605E-1,3.749185503E-1,2.238821089E-1
1.812181100E1,5.004513264E-1,2.280054539E-1,1.583668143E-1
1.813181100E1,5.615378618E-1,1.232420653E-1,6.750060618E-2
1.814181100E1,6.372851729E-1,7.651086897E-2,-2.825251780E-2
1.815181100E1,6.959282160E-1,4.581489414E-2,-8.155050874E-2
1.816181100E1,7.750352621E-1,1.970040426E-2,-1.127046347E-1
1.817181100E1,8.384125233E-1,-4.886921961E-3,-1.488984078E-1
1.818181100E1,8.556694984E-1,3.359758761E-3,-1.792889535E-1
1.819181100E1,8.400924206E-1,4.230241850E-2,-2.063197345E-1
1.820181100E1,7.918340564E-1,9.346238524E-2,-2.296853364E-1
1.821181100E1,7.226535678E-1,1.192714423E-1,-2.435825169E-1
1.822181100E1,6.485861540E-1,1.246165112E-1,-2.428189367E-1
1.823181100E1,5.401576161E-1,1.204931661E-1,-2.189951837E-1
1.824181100E1,4.353941977E-1,1.078177169E-1,-1.939497143E-1
1.825181100E1,3.318525553E-1,7.467827946E-2,-1.774563491E-1
1.826181100E1,2.548835278E-1,2.794708498E-2,-1.534798890E-1
1.827181100E1,1.780672222E-1,-3.100141138E-2,-1.550070494E-1
1.828181100E1,1.085812971E-1,-9.117163718E-2,-1.797471046E-1
1.829181100E1,5.986479297E-2,-1.406517178E-1,-1.994474977E-1
1.830181100E1,2.718350291E-2,-1.670716405E-1,-2.252565622E-1
1.831181100E1,1.404990070E-2,-1.440114826E-1,-2.619084716E-1
1.832181100E1,-3.512475174E-3,-6.032294407E-2,-3.046690524E-1
1.833181100E1,-4.123340361E-3,4.978551716E-2,-3.474296033E-1
1.834181100E1,-7.635815418E-4,2.157881409E-1,-3.842342496E-1
1.835181100E1,-1.603521220E-2,3.588833213E-1,-3.894265890E-1
1.836181100E1,-6.215553731E-2,4.271475375E-1,-3.604104817E-1
1.837181100E1,-1.075122803E-1,4.286746979E-1,-3.083342314E-1
1.838181100E1,-1.046106741E-1,4.130976200E-1,-1.960877478E-1
1.839181100E1,-4.734205827E-2,3.498730659E-1,-6.047565863E-2
1.840181100E1,2.565634064E-2,1.750128865E-1,2.412917651E-2
1.841181100E1,7.590000331E-2,-3.008511290E-2,3.329215571E-2
1.842181100E1,1.359175146E-1,-2.716823220E-1,7.024950348E-3
1.843181100E1,1.562287807E-1,-4.439463317E-1,-4.627304152E-2
1.844181100E1,1.887573600E-1,-6.200281978E-1,-1.030835137E-1
1.845181100E1,2.974913716E-1,-4.886921942E-1,-9.896016866E-2
1.846181100E1,3.750712574E-1,-8.170322329E-2,-1.130100712E-2
1.847181100E1,3.573561609E-1,-1.114829071E-2,1.469130963E-1
1.848181100E1,3.182607889E-1,-2.142609805E-1,2.626720667E-1
1.849181100E1,2.171625942E-1,-4.474588037E-1,3.306308091E-1
1.850181100E1,9.254608303E-2,-5.836817622E-1,3.326161206E-1
1.851181100E1,-7.330383174E-3,-6.411030889E-1,3.234531581E-1
1.852181100E1,-4.367686436E-2,-6.385068893E-1,3.037527502E-1
1.853181100E1,-3.604105115E-2,-6.204863787E-1,2.696970105E-1
1.854181100E1,-2.229658142E-2,-5.963571668E-1,2.209804952E-1
1.855181100E1,-4.948008433E-2,-5.187773108E-1,1.501201391E-1
1.856181100E1,-6.337726861E-2,-4.289801121E-1,1.000291854E-1
1.857181100E1,-1.026253626E-1,-2.991712391E-1,1.542434748E-2
1.858181100E1,-1.756237596E-1,-1.643227488E-1,-7.284568250E-2
1.859181100E1,-2.638937831E-1,-9.117163718E-2,-1.221730486E-1
1.860181100E1,-3.897320330E-1,-7.941247895E-3,-1.606575549E-1
1.861181100E1,-5.064072609E-1,5.222897977E-2,-1.467603743E-1
1.862181100E1,-5.710062981E-1,7.208210230E-2,-9.850201756E-2
1.863181100E1,-6.053674817E-1,7.834346592E-2,-5.482515693E-2
1.864181100E1,-6.238461137E-1,7.131851465E-2,-2.443460980E-3
1.865181100E1,-6.264423132E-1,6.536258012E-2,2.306016348E-2
1.866181100E1,-6.557638645E-1,1.067487001E-1,5.451972410E-2
1.867181100E1,-6.713408828E-1,1.710422635E-1,6.780604273E-2
1.868181100E1,-7.040221691E-1,2.040289938E-1,5.054909736E-2
1.869181100E1,-7.466300726E-1,1.339322031E-1,1.740965992E-2
1.870181100E1,-8.000807762E-1,2.031126991E-2,-5.345070735E-2
1.871181100E1,-8.437576294E-1,-5.100724846E-2,-1.145372316E-1
1.872181100E1,-8.790351152E-1,-8.475755155E-2,-1.426370293E-1
1.873181100E1,-8.717046976E-1,-6.062837690E-2,-1.171334088E-1
1.874181100E1,-8.449793458E-1,-6.108652335E-3,-7.803803682E-2
1.875181100E1,-7.819074988E-1,4.688390717E-2,-2.779436857E-2
1.876181100E1,-7.018841505E-1,8.032877743E-2,2.015855350E-2
1.877181100E1,-6.070473194E-1,1.101084575E-1,5.849034712E-2
1.878181100E1,-5.303837657E-1,1.605048478E-1,7.101308554E-2
1.879181100E1,-4.402811229E-1,1.999056488E-1,8.613199741E-2
1.880181100E1,-3.602577746E-1,2.151772827E-1,1.145372316E-1
1.881181100E1,-2.877175212E-1,1.820378453E-1,1.624901593E-1
1.882181100E1,-2.441933751E-1,1.200350225E-1,1.835650057E-1
1.883181100E1,-2.154827118E-1,2.779436857E-2,1.936442852E-1
1.884181100E1,-1.841758788E-1,-2.336559631E-2,2.145664245E-1
1.885181100E1,-1.685988009E-1,-3.191770986E-2,2.316706479E-1
1.886181100E1,-1.661553532E-1,-1.847867295E-2,2.499966025E-1
1.887181100E1,-1.528690308E-1,8.093964309E-3,2.719877362E-1
1.888181100E1,-9.896016866E-2,8.414668590E-2,2.733621895E-1
1.889181100E1,-6.230825558E-2,1.675297916E-1,2.771801054E-1
1.890181100E1,-4.734205827E-2,2.753475010E-1,2.916881442E-1
1.891181100E1,-5.574145541E-2,3.286454976E-1,3.135266006E-1
1.892181100E1,-7.299839705E-2,3.032945991E-1,3.220787048E-1
1.893181100E1,-7.803803682E-2,2.464841306E-1,3.147483170E-1
1.894181100E1,-5.971207842E-2,1.577559561E-1,2.661845386E-1
1.895181100E1,-2.932153270E-2,4.841107130E-2,1.933388561E-1
1.896181100E1,-1.970040426E-2,-6.200282276E-2,1.290452778E-1
1.897181100E1,-2.107485011E-2,-2.038762718E-1,6.459899992E-2
1.898181100E1,-1.145372353E-2,-3.277291954E-1,2.092213556E-2
1.899181100E1,8.857546374E-3,-4.199698567E-1,1.145372353E-2
1.900181100E1,3.069597855E-2,-4.285219610E-1,2.000583708E-2
1.901181100E1,6.612616032E-2,-3.657555580E-1,4.092797264E-2
1.902181100E1,1.156062484E-1,-3.501785100E-1,1.081231460E-1
1.903181100E1,1.191187184E-2,-1.896736622E-1,6.719517708E-2
1.904181100E1,-1.206458881E-1,4.138612002E-2,1.130100712E-2
1.905181100E1,-1.676825136E-1,1.107193232E-1,-1.832595654E-2
1.906181100E1,-1.117883399E-1,-1.572977938E-2,-9.086620808E-2
1.907181100E1,-4.856378585E-2,-1.884519309E-1,-1.988366395E-1
1.908181100E1,-1.802052557E-2,-3.063489199E-1,-2.800817192E-1
1.909181100E1,-9.926560335E-3,-4.457789063E-1,-2.945897579E-1
1.910181100E1,-4.444044828E-2,-5.387831330E-1,-2.860376537E-1
1.911181100E1,-4.688390717E-2,-5.424483418E-1,-2.813034356E-1
1.912181100E1,2.840523422E-2,-4.786129296E-1,-2.370157093E-1
1.913181100E1,1.036943719E-1,-3.904955983E-1,-1.623374373E-1
1.914181100E1,1.740965992E-1,-2.926044464E-1,-6.948592514E-2
1.915181100E1,2.286163121E-1,-2.055561543E-1,1.237002108E-2
1.916181100E1,3.086396754E-1,-6.414084882E-2,1.284344196E-1
1.917181100E1,3.901901841E-1,1.160643995E-1,2.261728644E-1
1.918181100E1,4.599815309E-1,2.901609838E-1,2.629774809E-1
1.919181100E1,5.053382516E-1,4.292855561E-1,2.837468982E-1
1.920181100E1,5.410739183E-1,5.587889552E-1,2.910772860E-1
1.921181100E1,5.514585972E-1,6.556110978E-1,2.629774809E-1
1.922181100E1,5.566509366E-1,6.979135275E-1,2.313652188E-1
1.923181100E1,5.749769211E-1,6.783658266E-1,1.899790913E-1
1.924181100E1,5.844452977E-1,5.607742667E-1,1.597412676E-1
1.925181100E1,6.192646623E-1,4.004221559E-1,1.308778822E-1
1.926181100E1,6.433938146E-1,2.936734557E-1,9.330966324E-2
1.927181100E1,6.956228018E-1,1.864666194E-1,3.894266114E-2
1.928181100E1,7.490735054E-1,8.918632567E-2,-7.024950348E-3
1.929181100E1,7.915286422E-1,3.191770986E-2,-2.977968007E-2
1.930181100E1,8.268061280E-1,1.954768784E-2,-4.306599870E-2
1.931181100E1,8.634580374E-1,3.985895589E-2,-5.619960278E-2
1.932181100E1,8.784242272E-1,9.193521738E-2,-7.208210230E-2
1.933181100E1,8.701775670E-1,1.427897513E-1,-9.407325089E-2
1.934181100E1,8.633053303E-1,1.913535446E-1,-1.160643995E-1
1.935181100E1,8.307767510E-1,2.496911734E-1,-1.481348276E-1
1.936181100E1,7.570147514E-1,2.828305960E-1,-1.802052408E-1
1.937181100E1,6.876815557E-1,2.819143236E-1,-1.902845204E-1
1.938181100E1,5.868887901E-1,2.571742535E-1,-2.212859392E-1
1.939181100E1,4.824308157E-1,2.322815061E-1,-2.559525371E-1
1.940181100E1,3.888157308E-1,1.965458989E-1,-2.869539559E-1
1.941181100E1,3.208569586E-1,1.678352207E-1,-3.092505336E-1
1.942181100E1,2.539672256E-1,1.403462887E-1,-3.278819323E-1
1.943181100E1,1.931861341E-1,1.189660057E-1,-3.489567637E-1
1.944181100E1,1.484402567E-1,1.191187203E-1,-3.845396638E-1
1.945181100E1,1.207986027E-1,1.495092660E-1,-4.187481403E-1
1.946181100E1,9.453139454E-2,2.211332172E-1,-4.604396820E-1
1.947181100E1,9.010262042E-2,2.903137207E-1,-4.836525619E-1
1.948181100E1,9.025534242E-2,3.254384696E-1,-4.850270152E-1
1.949181100E1,9.376781434E-2,3.132211566E-1,-4.789183438E-1
1.950181100E1,1.018617824E-1,2.272418737E-1,-4.482223690E-1
1.951181100E1,1.311833113E-1,1.010981947E-1,-3.711006343E-1
1.952181100E1,1.800525337E-1,6.414085161E-3,-2.733621895E-1
1.953181100E1,2.371684313E-1,-1.125519201E-1,-1.473712474E-1
1.954181100E1,2.835941911E-1,-2.727513313E-1,-7.254024595E-2
1.955181100E1,3.155119121E-1,-4.801400900E-1,-4.657847434E-2
1.956181100E1,3.342960179E-1,-6.305656433E-1,-4.749477282E-2
1.957181100E1,3.292563558E-1,-7.032586336E-1,-6.322455406E-2
1.958181100E1,3.414736688E-1,-7.507534027E-1,-9.972374886E-2
1.959181100E1,4.213443100E-1,-6.385068893E-1,-1.530217379E-1
1.960181100E1,5.232060552E-1,-1.143845171E-1,-1.689042449E-1
1.961181100E1,5.450445414E-1,3.182607889E-1,-9.850201756E-2
1.962181100E1,4.747950137E-1,2.229658216E-1,-1.114829071E-2
1.963181100E1,3.762930036E-1,-1.740965992E-2,3.619376570E-2
1.964181100E1,2.461786866E-1,-2.612976134E-1,9.178250283E-2
1.965181100E1,1.446223408E-1,-3.407101035E-1,1.339322031E-1
1.966181100E1,1.017090604E-1,-3.124575615E-1,2.018909603E-1
1.967181100E1,8.552113175E-2,-3.097086847E-1,2.651155293E-1
1.968181100E1,1.954768784E-2,-3.214678466E-1,3.061962128E-1
1.969181100E1,-5.818491429E-2,-3.087923825E-1,3.179553747E-1
1.970181100E1,-1.417207420E-1,-2.756529450E-1,2.565633953E-1
1.971181100E1,-2.188424766E-1,-2.339613885E-1,1.829541475E-1
1.972181100E1,-3.420845270E-1,-1.751656085E-1,9.315694869E-2
1.973181100E1,-4.531092942E-1,-1.055269688E-1,-2.596177394E-3
1.974181100E1,-5.241223574E-1,-4.214970022E-2,-7.498370856E-2
1.975181100E1,-5.612324476E-1,1.985312067E-2,-1.372919679E-1
1.976181100E1,-5.716171265E-1,8.032877743E-2,-1.824959964E-1
1.977181100E1,-5.761986375E-1,1.434006095E-1,-1.973094791E-1
1.978181100E1,-5.844452977E-1,2.138028294E-1,-1.901318133E-1
1.979181100E1,-6.036875844E-1,3.242167234E-1,-1.611157060E-1
1.980181100E1,-6.473644376E-1,4.033237696E-1,-1.273654103E-1
1.981181100E1,-7.095199823E-1,4.098905921E-1,-1.056796908E-1
1.982181100E1,-7.718282342E-1,3.338378668E-1,-1.072068512E-1
1.983181100E1,-8.196284175E-1,2.081523389E-1,-1.232420653E-1
1.984181100E1,-8.604037166E-1,9.453139454E-2,-8.063421398E-2
1.985181100E1,-8.767443299E-1,2.794708498E-2,-5.131268129E-2
1.986181100E1,-8.889616728E-1,1.603521220E-2,-4.657847434E-2
1.987181100E1,-8.875871897E-1,7.422012836E-2,-2.474004216E-2
