"Time (s)","Acceleration x (m/s^2)","Acceleration y (m/s^2)","Acceleration z (m/s^2)"
3.017025400E-2,-8.123034477E0,1.435095429E0,5.340780258E0
4.017025400E-2,-8.180462837E0,1.353141189E0,5.431707382E0
5.017025400E-2,-8.066802979E0,1.430309772E0,5.527420521E0
6.017025400E-2,-7.867002487E0,1.493121386E0,5.614160061E0
7.017025400E-2,-7.779066563E0,1.234696507E0,5.502295494E0
8.017025400E-2,-7.762316704E0,1.277767301E0,5.755336761E0
9.017025400E-2,-7.675576687E0,1.134197950E0,5.694917679E0
1.001702540E-1,-7.668996811E0,1.143769264E0,5.513063431E0
1.101702540E-1,-7.722237110E0,1.320838094E0,5.506483078E0
1.201702540E-1,-7.913064480E0,1.406979680E0,5.413761139E0
1.301702540E-1,-8.072187424E0,1.463809252E0,5.599205017E0
1.401702540E-1,-8.020143509E0,1.406381488E0,5.690730572E0
1.501702540E-1,-7.828119278E0,1.359123230E0,5.587240696E0
1.601702540E-1,-7.843074322E0,1.373480201E0,5.667998791E0
1.701702540E-1,-7.852645874E0,1.392622828E0,5.706283569E0
1.801702540E-1,-7.856832981E0,1.459621787E0,5.576473236E0
1.901702540E-1,-8.003393173E0,1.415952802E0,5.389235020E0
2.001702540E-1,-8.137989998E0,1.430309772E0,5.436492920E0
2.101702540E-1,-8.075776100E0,1.363310695E0,5.446662426E0
2.201702540E-1,-7.985447407E0,1.348953724E0,5.519045353E0
2.301702540E-1,-7.828119278E0,1.354337573E0,5.630311489E0
2.401702540E-1,-7.694719315E0,1.363908887E0,5.678766251E0
2.501702540E-1,-7.627720356E0,1.316052437E0,5.703292847E0
2.601702540E-1,-7.761120319E0,1.349551916E0,5.630311489E0
2.701702540E-1,-7.948358536E0,1.353739381E0,5.715256691E0
2.801702540E-1,-7.890930653E0,1.368096352E0,5.658427238E0
2.901702540E-1,-7.780262947E0,1.397408366E0,5.615954876E0
3.001702540E-1,-7.733004570E0,1.392622828E0,5.654240131E0
3.101702540E-1,-7.704290867E0,1.397408366E0,5.630909920E0
3.201702540E-1,-7.841279984E0,1.392622828E0,5.410171986E0
3.301702540E-1,-8.218747139E0,1.348355532E0,5.402993679E0
3.401702540E-1,-8.228917122E0,1.324427366E0,5.484349728E0
3.501702540E-1,-8.018946648E0,1.329811215E0,5.528616905E0
3.601702540E-1,-7.871190071E0,1.344168067E0,5.567500114E0
3.701702540E-1,-7.676175117E0,1.402194023E0,5.693123341E0
3.801702540E-1,-7.546962738E0,1.421934843E0,5.751149178E0
3.901702540E-1,-7.504489899E0,1.407577872E0,5.755934715E0
4.001702540E-1,-7.609176159E0,1.455434322E0,5.712265968E0
4.101702540E-1,-7.762316704E0,1.426122308E0,5.701498032E0
4.201702540E-1,-7.927421570E0,1.406979680E0,5.480760098E0
4.301702540E-1,-8.094321251E0,1.320239902E0,5.432305813E0
4.401702540E-1,-8.080561638E0,1.329811215E0,5.499304771E0
4.501702540E-1,-7.899305820E0,1.335195065E0,5.538786411E0
4.601702540E-1,-7.756334782E0,1.339980721E0,5.625525951E0
4.701702540E-1,-7.704290867E0,1.349551916E0,5.664409637E0
4.801702540E-1,-7.637889862E0,1.407577872E0,5.702694416E0
4.901702540E-1,-7.585247993E0,1.441077471E0,5.736194134E0
5.001702540E-1,-7.508677483E0,1.441077471E0,5.722435474E0
5.101702540E-1,-7.488936901E0,1.436291814E0,5.655436516E0
5.201702540E-1,-7.591827869E0,1.297508121E0,5.388636589E0
5.301702540E-1,-7.635497093E0,1.354337573E0,5.397011280E0
5.401702540E-1,-7.525427341E0,1.407577872E0,5.383252621E0
5.501702540E-1,-7.362117290E0,1.393819213E0,5.293521881E0
5.601702540E-1,-7.223333359E0,1.412961721E0,5.280361176E0
5.701702540E-1,-7.107879639E0,1.456630826E0,5.204389095E0
5.801702540E-1,-7.083353043E0,1.466202021E0,5.070391178E0
5.901702540E-1,-7.125227451E0,1.422533035E0,4.994419098E0
6.001702540E-1,-7.280761242E0,1.269392371E0,4.745565414E0
6.101702540E-1,-7.792226791E0,1.105484009E0,4.117449760E0
6.201702540E-1,-8.234300613E0,7.926225066E-1,3.820141315E0
6.301702540E-1,-8.859425545E0,5.186443329E-1,2.461018085E0
6.401702540E-1,-9.659825325E0,5.072783828E-1,1.470987678E0
6.501702540E-1,-1.047039413E1,5.341976285E-1,1.097109199E0
6.601702540E-1,-1.094058323E1,6.861419082E-1,7.010970116E-1
6.701702540E-1,-1.105244732E1,6.759724021E-1,3.230310678E-1
6.801702540E-1,-1.109611702E1,7.142575383E-1,3.463610709E-1
6.901702540E-1,-1.099202919E1,7.627122402E-1,4.947160780E-1
7.001702540E-1,-1.087298584E1,5.760720372E-1,5.922235847E-1
7.101702540E-1,-1.055354404E1,6.197410822E-1,6.849454641E-1
7.201702540E-1,-1.031067276E1,6.059823632E-1,8.685946465E-1
7.301702540E-1,-1.009651470E1,5.491527915E-1,9.996016622E-1
7.401702540E-1,-9.933204651E0,3.918247223E-1,9.589236975E-1
7.501702540E-1,-9.921838760E0,2.667997181E-1,7.974081635E-1
7.601702540E-1,-9.963713646E0,2.237289101E-1,6.586244106E-1
7.701702540E-1,-9.860223770E0,3.343969584E-1,8.398807645E-1
7.801702540E-1,-9.750154495E0,3.056831062E-1,8.027920127E-1
7.901702540E-1,-9.754341125E0,3.966103494E-1,7.256234884E-1
8.001702540E-1,-9.750154495E0,4.444667995E-1,7.495517135E-1
8.101702540E-1,-9.708279610E0,4.636093974E-1,9.403793216E-1
8.201702540E-1,-9.699904442E0,5.018945336E-1,1.040877819E0
8.301702540E-1,-9.628120422E0,6.604190469E-1,1.049850941E0
8.401702540E-1,-9.595816612E0,7.226324677E-1,1.164108157E0
8.501702540E-1,-9.552745819E0,6.747759581E-1,1.150349498E0
8.601702540E-1,-9.535996437E0,6.412764788E-1,8.213363886E-1
8.701702540E-1,-9.937392235E0,3.146561682E-1,3.092723191E-1
8.801702540E-1,-9.987043381E0,3.385843933E-1,5.144568682E-1
8.901702540E-1,-9.824331284E0,4.779663086E-1,4.666004181E-1
9.001702540E-1,-9.701699257E0,4.683950245E-1,6.777670383E-1
9.101702540E-1,-9.668798447E0,4.827519655E-1,7.830511928E-1
9.201702540E-1,-9.645467758E0,4.301098585E-1,8.362914920E-1
9.301702540E-1,-9.616754532E0,3.535395563E-1,8.560323119E-1
9.401702540E-1,-9.649655342E0,3.439682424E-1,8.321040869E-1
9.501702540E-1,-9.707681656E0,2.913261652E-1,9.038887620E-1
9.601702540E-1,-9.672387123E0,3.583251834E-1,6.071787477E-1
9.701702540E-1,-9.620942116E0,6.221339107E-1,6.915257573E-1
9.801702540E-1,-9.597013474E0,4.737788737E-1,7.597211599E-1
9.901702540E-1,-9.631111145E0,6.029912829E-1,7.776673436E-1
1.000170254E0,-9.611968994E0,6.029912829E-1,7.776673436E-1
1.010170254E0,-9.625128746E0,5.838487148E-1,6.442674994E-1
1.020170254E0,-9.658628464E0,5.838487148E-1,6.149554253E-1
1.030170254E0,-9.714859962E0,5.306084156E-1,5.294120312E-1
1.040170254E0,-9.743574142E0,4.683950245E-1,5.006981492E-1
1.050170254E0,-9.724431038E0,4.683950245E-1,5.341976285E-1
1.060170254E0,-9.672387123E0,5.024927258E-1,6.011967063E-1
1.070170254E0,-9.649655342E0,4.689932466E-1,7.453642488E-1
1.080170254E0,-9.630513191E0,4.061816335E-1,7.986045480E-1
1.090170254E0,-9.625727654E0,3.631108403E-1,7.507480979E-1
1.100170254E0,-9.686744690E0,3.056831062E-1,6.789634228E-1
1.110170254E0,-9.729216576E0,2.865405083E-1,5.832505226E-1
1.120170254E0,-9.790832520E0,2.721835673E-1,4.971089065E-1
1.130170254E0,-9.805189133E0,2.482553422E-1,4.971089065E-1
1.140170254E0,-9.800403595E0,2.482553422E-1,5.545366406E-1
1.150170254E0,-9.796216011E0,2.865405083E-1,6.065805554E-1
1.160170254E0,-9.854242325E0,3.152543902E-1,6.921239495E-1
1.170170254E0,-9.887741089E0,3.583251834E-1,6.819544435E-1
1.180170254E0,-9.915857315E0,4.301098585E-1,5.808576941E-1
1.190170254E0,-9.872786522E0,4.588237405E-1,5.192425251E-1
1.200170254E0,-9.876974106E0,5.162515044E-1,4.372883439E-1
1.210170254E0,-9.833903313E0,6.263213158E-1,4.079762697E-1
1.220170254E0,-9.733404160E0,6.747759581E-1,4.229314029E-1
1.230170254E0,-9.658030510E0,7.274180651E-1,4.995017350E-1
1.240170254E0,-9.567103386E0,7.130611539E-1,5.096712112E-1
1.250170254E0,-9.494720459E0,6.173482537E-1,5.108676553E-1
1.260170254E0,-9.533005714E0,5.024927258E-1,5.449653864E-1
1.270170254E0,-9.614361763E0,4.881358147E-1,5.060819983E-1
1.280170254E0,-9.613164902E0,4.163511395E-1,3.924229145E-1
1.290170254E0,-9.655637741E0,3.918247223E-1,3.110669553E-1
1.300170254E0,-9.683753014E0,3.200400174E-1,2.727817893E-1
1.310170254E0,-9.703494072E0,3.391826153E-1,2.967100143E-1
1.320170254E0,-9.684351921E0,3.678964674E-1,2.967100143E-1
1.330170254E0,-9.646066666E0,3.296113312E-1,3.349951804E-1
1.340170254E0,-9.646066666E0,3.296113312E-1,3.349951804E-1
1.350170254E0,-9.698708534E0,4.588237405E-1,3.002992272E-1
1.360170254E0,-9.741779327E0,4.923232496E-1,2.853440940E-1
1.370170254E0,-9.770493507E0,4.683950245E-1,3.140579760E-1
1.380170254E0,-9.770493507E0,4.683950245E-1,3.140579760E-1
1.390170254E0,-9.775876999E0,5.162515044E-1,3.427718580E-1
1.400170254E0,-9.751350403E0,5.066801906E-1,3.284149170E-1
1.410170254E0,-9.698708534E0,5.018945336E-1,2.907279432E-1
1.420170254E0,-9.694520950E0,4.971089065E-1,3.672982752E-1
1.430170254E0,-9.579665184E0,4.115654826E-1,3.876372576E-1
1.440170254E0,-9.570692062E0,4.067798555E-1,4.642075896E-1
1.450170254E0,-9.537193298E0,2.823530734E-1,4.989035130E-1
1.460170254E0,-9.533005714E0,2.775674164E-1,5.467599630E-1
1.470170254E0,-9.561718941E0,2.297109663E-1,5.611169338E-1
1.480170254E0,-9.609575272E0,2.291127741E-1,6.275177598E-1
1.490170254E0,-9.657432556E0,2.099701911E-1,6.179464459E-1
1.500170254E0,-9.681360245E0,1.860419661E-1,5.700899959E-1
1.510170254E0,-9.699904442E0,2.434697002E-1,4.785645306E-1
1.520170254E0,-9.723833084E0,2.099701911E-1,5.078766346E-1
1.530170254E0,-9.531210899E0,4.498506486E-1,2.494517565E-1
1.540170254E0,-9.292527199E0,6.466603279E-1,2.685943544E-1
1.550170254E0,-9.659226418E0,3.008974493E-1,7.794619799E-1
1.560170254E0,-1.013121128E1,1.034895778E-1,6.825526357E-1
1.570170254E0,-1.013240719E1,1.322034448E-1,1.567298770E-1
1.580170254E0,-1.006839943E1,1.369891018E-1,-8.673982322E-2
1.590170254E0,-9.930213928E0,1.902294010E-1,9.571290575E-3
1.600170254E0,-9.927223206E0,6.101697683E-2,2.542374134E-1
1.610170254E0,-9.961320877E0,8.494520187E-2,3.493520916E-1
1.620170254E0,-9.961320877E0,9.451649338E-2,3.445664644E-1
1.630170254E0,-9.913464546E0,1.136590764E-1,3.206382394E-1
1.640170254E0,-9.817750931E0,2.434697002E-1,2.727817893E-1
1.650170254E0,-9.755537987E0,2.961117923E-1,2.823530734E-1
1.660170254E0,-9.732208252E0,3.631108403E-1,3.104687333E-1
1.670170254E0,-9.741779327E0,4.157529473E-1,2.955136001E-1
1.680170254E0,-9.770493507E0,4.588237405E-1,3.098705411E-1
1.690170254E0,-9.760921478E0,4.875376225E-1,2.757728100E-1
1.700170254E0,-9.741779327E0,4.875376225E-1,2.907279432E-1
1.710170254E0,-9.732208252E0,5.018945336E-1,2.955136001E-1
1.720170254E0,-9.698708534E0,5.018945336E-1,2.955136001E-1
1.730170254E0,-9.684351921E0,4.588237405E-1,2.721835673E-1
1.740170254E0,-9.698708534E0,4.588237405E-1,2.721835673E-1
1.750170254E0,-9.732208252E0,4.588237405E-1,3.337987661E-1
1.760170254E0,-9.728020668E0,4.109672904E-1,3.672982752E-1
1.770170254E0,-9.742377281E0,4.061816335E-1,3.625126183E-1
1.780170254E0,-9.713065147E0,4.061816335E-1,3.439682424E-1
1.790170254E0,-9.646066666E0,4.061816335E-1,2.775674164E-1
1.800170254E0,-9.636494637E0,4.211367965E-1,2.967100143E-1
1.810170254E0,-9.626923561E0,4.450650215E-1,2.961117923E-1
1.820170254E0,-9.669994354E0,4.301098585E-1,3.248256743E-1
1.830170254E0,-9.679565430E0,4.683950245E-1,2.626122832E-1
1.840170254E0,-9.665208817E0,4.444667995E-1,2.626122832E-1
1.850170254E0,-9.703494072E0,4.109672904E-1,3.152543902E-1
1.860170254E0,-9.704092026E0,4.444667995E-1,3.625126183E-1
1.870170254E0,-9.722636223E0,4.492524564E-1,3.385843933E-1
1.880170254E0,-9.760921478E0,3.966103494E-1,3.337987661E-1
1.890170254E0,-9.741779327E0,3.918247223E-1,3.098705411E-1
1.900170254E0,-9.693922997E0,3.870390654E-1,3.200400174E-1
1.910170254E0,-9.693922997E0,3.726821244E-1,3.343969584E-1
1.920170254E0,-9.684351921E0,3.631108403E-1,3.110669553E-1
1.930170254E0,-9.717252731E0,3.726821244E-1,2.817548811E-1
1.940170254E0,-9.736394882E0,3.631108403E-1,2.291127741E-1
1.950170254E0,-9.769296646E0,3.774677813E-1,1.956132501E-1
1.960170254E0,-9.754940033E0,3.678964674E-1,1.908276081E-1
1.970170254E0,-9.745966911E0,3.583251834E-1,2.195414752E-1
1.980170254E0,-9.731609344E0,3.535395563E-1,2.440679073E-1
1.990170254E0,-9.703494072E0,3.487538993E-1,3.014956415E-1
2.000170254E0,-9.708279610E0,3.918247223E-1,3.008974493E-1
2.010170254E0,-9.689137459E0,4.301098585E-1,3.248256743E-1
2.020170254E0,-9.661021233E0,4.396811724E-1,3.822534084E-1
2.030170254E0,-9.661619186E0,4.594219327E-1,4.295116663E-1
2.040170254E0,-9.661619186E0,4.450650215E-1,4.582255483E-1
2.050170254E0,-9.671191216E0,4.205385745E-1,4.540380836E-1
2.060170254E0,-9.680762291E0,4.444667995E-1,4.582255483E-1
2.070170254E0,-9.699904442E0,4.396811724E-1,4.486542344E-1
2.080170254E0,-9.733404160E0,4.301098585E-1,4.342973232E-1
2.090170254E0,-9.737591743E0,4.444667995E-1,4.199403822E-1
2.100170254E0,-9.747760773E0,4.683950245E-1,4.151547253E-1
2.110170254E0,-9.747760773E0,4.827519655E-1,4.193421602E-1
2.120170254E0,-9.742975235E0,4.731806815E-1,4.295116663E-1
2.130170254E0,-9.733404160E0,4.875376225E-1,4.342973232E-1
2.140170254E0,-9.732806206E0,4.636093974E-1,3.960121572E-1
2.150170254E0,-9.708877563E0,4.396811724E-1,4.055834413E-1
2.160170254E0,-9.699306488E0,4.205385745E-1,4.205385745E-1
2.170170254E0,-9.699306488E0,3.918247223E-1,3.966103494E-1
2.180170254E0,-9.713065147E0,3.870390654E-1,3.487538993E-1
2.190170254E0,-9.708279610E0,3.870390654E-1,3.487538993E-1
2.200170254E0,-9.742377281E0,4.109672904E-1,3.720839322E-1
2.210170254E0,-9.704092026E0,4.013960063E-1,4.253242314E-1
2.220170254E0,-9.756733894E0,3.966103494E-1,4.342973232E-1
2.230170254E0,-9.747162819E0,3.678964674E-1,4.205385745E-1
2.240170254E0,-9.761520386E0,3.391826153E-1,3.966103494E-1
2.250170254E0,-9.732806206E0,3.631108403E-1,4.013960063E-1
2.260170254E0,-9.704092026E0,3.918247223E-1,4.205385745E-1
2.270170254E0,-9.680164337E0,3.966103494E-1,4.013960063E-1
2.280170254E0,-9.656235695E0,3.918247223E-1,4.109672904E-1
2.290170254E0,-9.642477036E0,4.301098585E-1,4.588237405E-1
2.300170254E0,-9.680762291E0,4.348955154E-1,4.588237405E-1
2.310170254E0,-9.737591743E0,4.109672904E-1,3.816552162E-1
2.320170254E0,-9.751350403E0,4.109672904E-1,3.194418252E-1
2.330170254E0,-9.793823242E0,4.157529473E-1,2.285145670E-1
2.340170254E0,-9.745966911E0,4.205385745E-1,1.956132501E-1
2.350170254E0,-9.731609344E0,4.301098585E-1,2.482553422E-1
2.360170254E0,-9.684351921E0,4.013960063E-1,3.296113312E-1
2.370170254E0,-9.656235695E0,4.013960063E-1,3.732803464E-1
2.380170254E0,-9.651450157E0,3.822534084E-1,3.780659735E-1
2.390170254E0,-9.675378799E0,3.487538993E-1,3.924229145E-1
2.400170254E0,-9.713065147E0,3.487538993E-1,3.541377485E-1
2.410170254E0,-9.703494072E0,3.774677813E-1,3.487538993E-1
2.420170254E0,-9.684351921E0,4.061816335E-1,3.391826153E-1
2.430170254E0,-9.689735413E0,4.253242314E-1,3.822534084E-1
2.440170254E0,-9.651450157E0,4.683950245E-1,3.822534084E-1
2.450170254E0,-9.733404160E0,4.731806815E-1,4.582255483E-1
2.460170254E0,-9.738189697E0,4.636093974E-1,4.342973232E-1
2.470170254E0,-9.728020668E0,4.540380836E-1,4.103690982E-1
2.480170254E0,-9.733404160E0,4.683950245E-1,4.534398913E-1
2.490170254E0,-9.704689980E0,4.396811724E-1,4.917250574E-1
2.500170254E0,-9.656833649E0,4.157529473E-1,4.827519655E-1
2.510170254E0,-9.685547829E0,3.822534084E-1,4.779663086E-1
2.520170254E0,-9.666405678E0,4.013960063E-1,4.683950245E-1
2.530170254E0,-9.719047546E0,3.966103494E-1,4.588237405E-1
2.540170254E0,-9.738189697E0,3.966103494E-1,4.677968323E-1
2.550170254E0,-9.737591743E0,3.918247223E-1,4.253242314E-1
2.560170254E0,-9.732806206E0,3.966103494E-1,4.013960063E-1
2.570170254E0,-9.737591743E0,3.918247223E-1,4.007977843E-1
2.580170254E0,-9.751350403E0,3.774677813E-1,3.439682424E-1
2.590170254E0,-9.765707016E0,3.391826153E-1,3.152543902E-1
2.600170254E0,-9.741779327E0,3.343969584E-1,3.008974493E-1
2.610170254E0,-9.751350403E0,3.056831062E-1,3.439682424E-1
2.620170254E0,-9.722636223E0,3.152543902E-1,3.349951804E-1
2.630170254E0,-9.704092026E0,3.583251834E-1,3.774677813E-1
2.640170254E0,-9.694520950E0,3.678964674E-1,4.013960063E-1
2.650170254E0,-9.713663101E0,3.583251834E-1,4.061816335E-1
2.660170254E0,-9.746564865E0,3.391826153E-1,3.535395563E-1
2.670170254E0,-9.775279045E0,3.200400174E-1,3.200400174E-1
2.680170254E0,-9.774680138E0,3.296113312E-1,2.721835673E-1
2.690170254E0,-9.693324089E0,3.152543902E-1,2.398804724E-1
2.700170254E0,-9.755537987E0,3.439682424E-1,2.626122832E-1
2.710170254E0,-9.736394882E0,3.200400174E-1,2.584248483E-1
2.720170254E0,-9.726823807E0,3.487538993E-1,2.823530734E-1
2.730170254E0,-9.717252731E0,3.056831062E-1,2.823530734E-1
2.740170254E0,-9.736394882E0,3.008974493E-1,2.632105052E-1
2.750170254E0,-9.741181374E0,3.152543902E-1,2.488535494E-1
2.760170254E0,-9.731609344E0,3.439682424E-1,2.297109663E-1
2.770170254E0,-9.722038269E0,3.296113312E-1,2.344966233E-1
2.780170254E0,-9.722038269E0,3.774677813E-1,2.530409992E-1
2.790170254E0,-9.726823807E0,3.200400174E-1,2.584248483E-1
2.800170254E0,-9.712467194E0,3.343969584E-1,2.919243574E-1
2.810170254E0,-9.698708534E0,3.535395563E-1,3.158525825E-1
2.820170254E0,-9.669994354E0,3.678964674E-1,2.967100143E-1
2.830170254E0,-9.708279610E0,3.487538993E-1,3.206382394E-1
2.840170254E0,-9.674779892E0,3.535395563E-1,3.206382394E-1
2.850170254E0,-9.684351921E0,3.631108403E-1,3.541377485E-1
2.860170254E0,-9.741779327E0,3.535395563E-1,3.248256743E-1
2.870170254E0,-9.703494072E0,3.391826153E-1,3.254238665E-1
2.880170254E0,-9.689137459E0,3.535395563E-1,3.302095234E-1
2.890170254E0,-9.713065147E0,3.678964674E-1,3.391826153E-1
2.900170254E0,-9.708279610E0,3.870390654E-1,3.248256743E-1
2.910170254E0,-9.741779327E0,3.726821244E-1,3.248256743E-1
2.920170254E0,-9.751350403E0,3.774677813E-1,3.200400174E-1
2.930170254E0,-9.751350403E0,3.822534084E-1,3.391826153E-1
2.940170254E0,-9.736993790E0,3.343969584E-1,3.678964674E-1
2.950170254E0,-9.736993790E0,3.391826153E-1,3.726821244E-1
2.960170254E0,-9.698708534E0,3.391826153E-1,3.589234054E-1
2.970170254E0,-9.689137459E0,3.200400174E-1,3.206382394E-1
2.980170254E0,-9.722636223E0,3.056831062E-1,3.062812984E-1
2.990170254E0,-9.726823807E0,3.152543902E-1,2.344966233E-1
3.000170254E0,-9.735796928E0,3.104687333E-1,1.770688742E-1
3.010170254E0,-9.754940033E0,2.865405083E-1,1.866401732E-1
3.020170254E0,-9.750154495E0,2.721835673E-1,1.770688742E-1
3.030170254E0,-9.764511108E0,2.769692242E-1,1.627119333E-1
3.040170254E0,-9.768698692E0,2.673979402E-1,1.531406492E-1
3.050170254E0,-9.763913155E0,2.769692242E-1,1.004985496E-1
3.060170254E0,-9.763913155E0,2.913261652E-1,1.148554832E-1
3.070170254E0,-9.749555588E0,2.961117923E-1,9.092725813E-2
3.080170254E0,-9.735198975E0,3.343969584E-1,1.052841991E-1
3.090170254E0,-9.716055870E0,3.200400174E-1,1.292124242E-1
3.100170254E0,-9.711869240E0,3.487538993E-1,1.483550072E-1
3.110170254E0,-9.735796928E0,3.391826153E-1,1.435693651E-1
3.120170254E0,-9.740582466E0,3.248256743E-1,1.627119333E-1
3.130170254E0,-9.726225853E0,3.200400174E-1,1.483550072E-1
3.140170254E0,-9.707083702E0,3.535395563E-1,1.531406492E-1
3.150170254E0,-9.687940598E0,3.583251834E-1,1.674975902E-1
3.160170254E0,-9.683155060E0,3.631108403E-1,1.435693651E-1
3.170170254E0,-9.692128181E0,3.439682424E-1,1.196411327E-1
3.180170254E0,-9.692128181E0,3.583251834E-1,8.614161611E-2
3.190170254E0,-9.692726135E0,3.631108403E-1,1.387837082E-1
3.200170254E0,-9.721440315E0,3.631108403E-1,1.531406492E-1
3.210170254E0,-9.735796928E0,3.678964674E-1,1.764706671E-1
3.220170254E0,-9.740582466E0,3.535395563E-1,1.627119333E-1
3.230170254E0,-9.759725571E0,3.774677813E-1,2.051845491E-1
3.240170254E0,-9.745966911E0,3.726821244E-1,2.243271172E-1
3.250170254E0,-9.731609344E0,3.583251834E-1,2.243271172E-1
3.260170254E0,-9.731609344E0,3.678964674E-1,2.243271172E-1
3.270170254E0,-9.707083702E0,3.439682424E-1,1.722832322E-1
3.280170254E0,-9.707083702E0,3.439682424E-1,1.579262912E-1
3.290170254E0,-9.721440315E0,3.248256743E-1,1.387837082E-1
3.300170254E0,-9.744770050E0,3.008974493E-1,1.148554832E-1
3.310170254E0,-9.759127617E0,3.296113312E-1,1.196411327E-1
3.320170254E0,-9.768698692E0,3.296113312E-1,9.571290761E-2
3.330170254E0,-9.797411919E0,3.343969584E-1,7.118647546E-2
3.340170254E0,-9.797411919E0,3.535395563E-1,8.075776696E-2
3.350170254E0,-9.778269768E0,3.583251834E-1,9.511470050E-2
3.360170254E0,-9.740582466E0,3.822534084E-1,1.333998591E-1
3.370170254E0,-9.726225853E0,3.631108403E-1,1.387837082E-1
3.380170254E0,-9.735198975E0,3.822534084E-1,1.142572835E-1
3.390170254E0,-9.739984512E0,3.726821244E-1,1.004985496E-1
3.400170254E0,-9.739984512E0,3.487538993E-1,1.196411327E-1
3.410170254E0,-9.744770050E0,3.391826153E-1,1.339980662E-1
3.420170254E0,-9.731011391E0,3.583251834E-1,1.674975902E-1
3.430170254E0,-9.716654778E0,3.296113312E-1,1.722832322E-1
3.440170254E0,-9.745368004E0,3.391826153E-1,2.009970993E-1
3.450170254E0,-9.745368004E0,3.391826153E-1,2.009970993E-1
3.460170254E0,-9.740582466E0,3.631108403E-1,1.866401732E-1
3.470170254E0,-9.759725571E0,3.678964674E-1,1.860419661E-1
3.480170254E0,-9.731609344E0,3.439682424E-1,2.105683982E-1
3.490170254E0,-9.731011391E0,3.678964674E-1,1.914258152E-1
3.500170254E0,-9.740582466E0,3.631108403E-1,2.009970993E-1
3.510170254E0,-9.745368004E0,3.726821244E-1,1.716850251E-1
3.520170254E0,-9.731011391E0,3.631108403E-1,1.435693651E-1
3.530170254E0,-9.745368004E0,3.631108403E-1,1.381855011E-1
3.540170254E0,-9.764511108E0,3.535395563E-1,1.381855011E-1
3.550170254E0,-9.764511108E0,3.774677813E-1,1.716850251E-1
3.560170254E0,-9.760323524E0,3.678964674E-1,2.386840582E-1
3.570170254E0,-9.765707016E0,3.822534084E-1,2.865405083E-1
3.580170254E0,-9.756135941E0,3.774677813E-1,3.008974493E-1
3.590170254E0,-9.765707016E0,3.870390654E-1,3.290131092E-1
3.600170254E0,-9.741779327E0,3.966103494E-1,3.391826153E-1
3.610170254E0,-9.770493507E0,3.870390654E-1,3.194418252E-1
3.620170254E0,-9.765109062E0,3.678964674E-1,2.769692242E-1
3.630170254E0,-9.798608780E0,3.631108403E-1,2.243271172E-1
3.640170254E0,-9.797411919E0,3.296113312E-1,1.429711580E-1
3.650170254E0,-9.782457352E0,3.104687333E-1,4.307080805E-2
3.660170254E0,-9.753743172E0,2.817548811E-1,2.931207791E-2
3.670170254E0,-9.739386559E0,2.721835673E-1,2.452643216E-2
3.680170254E0,-9.748957634E0,2.530409992E-1,5.802594870E-2
3.690170254E0,-9.744770050E0,2.434697002E-1,9.631111473E-2
3.700170254E0,-9.754341125E0,2.243271172E-1,1.058823988E-1
3.710170254E0,-9.763913155E0,2.291127741E-1,1.010967568E-1
3.720170254E0,-9.744172096E0,2.338984162E-1,8.673982322E-2
3.730170254E0,-9.716055870E0,2.386840582E-1,9.152546525E-2
3.740170254E0,-9.701699257E0,2.578266263E-1,1.010967568E-1
3.750170254E0,-9.682557106E0,2.626122832E-1,1.393819153E-1
3.760170254E0,-9.658628464E0,2.530409992E-1,1.447657645E-1
3.770170254E0,-9.664012909E0,2.530409992E-1,1.591227055E-1
3.780170254E0,-9.678369522E0,2.291127741E-1,1.926222295E-1
3.790170254E0,-9.687940598E0,2.338984162E-1,1.734796464E-1
3.800170254E0,-9.654440880E0,2.147558331E-1,1.734796464E-1
3.810170254E0,-9.654440880E0,2.195414752E-1,1.734796464E-1
3.820170254E0,-9.654440880E0,2.291127741E-1,1.830509305E-1
3.830170254E0,-9.654440880E0,2.434697002E-1,2.021935135E-1
3.840170254E0,-9.664610863E0,2.434697002E-1,2.356930375E-1
3.850170254E0,-9.674181938E0,2.769692242E-1,2.638086975E-1
3.860170254E0,-9.698110580E0,2.482553422E-1,3.068794906E-1
3.870170254E0,-9.713065147E0,2.338984162E-1,3.308077157E-1
3.880170254E0,-9.703494072E0,2.291127741E-1,3.499503136E-1
3.890170254E0,-9.713065147E0,2.195414752E-1,3.499503136E-1
3.900170254E0,-9.741779327E0,2.338984162E-1,3.260220885E-1
3.910170254E0,-9.756135941E0,2.673979402E-1,3.445664644E-1
3.920170254E0,-9.736993790E0,2.769692242E-1,3.589234054E-1
3.930170254E0,-9.723235130E0,3.152543902E-1,3.972085714E-1
3.940170254E0,-9.699306488E0,3.343969584E-1,3.924229145E-1
3.950170254E0,-9.723235130E0,3.296113312E-1,3.732803464E-1
3.960170254E0,-9.708279610E0,3.056831062E-1,3.541377485E-1
3.970170254E0,-9.702896118E0,2.865405083E-1,2.638086975E-1
3.980170254E0,-9.702896118E0,2.913261652E-1,2.255235314E-1
3.990170254E0,-9.721440315E0,3.008974493E-1,1.627119333E-1
4.000170254E0,-9.735198975E0,2.961117923E-1,1.100698411E-1
4.010170254E0,-9.701699257E0,3.296113312E-1,9.571290761E-2
4.020170254E0,-9.701699257E0,3.152543902E-1,1.345962733E-1
4.030170254E0,-9.711869240E0,2.961117923E-1,2.057827413E-1
4.040170254E0,-9.712467194E0,2.817548811E-1,2.590230405E-1
4.050170254E0,-9.726823807E0,2.530409992E-1,2.829512656E-1
4.060170254E0,-9.727422714E0,2.482553422E-1,3.308077157E-1
4.070170254E0,-9.741779327E0,2.530409992E-1,3.302095234E-1
4.080170254E0,-9.756135941E0,2.482553422E-1,3.397808075E-1
4.090170254E0,-9.746564865E0,2.434697002E-1,3.493520916E-1
4.100170254E0,-9.736993790E0,2.578266263E-1,3.541377485E-1
4.110170254E0,-9.717850685E0,2.578266263E-1,3.732803464E-1
4.120170254E0,-9.689137459E0,2.578266263E-1,3.690928817E-1
4.130170254E0,-9.679565430E0,2.530409992E-1,3.499503136E-1
4.140170254E0,-9.665208817E0,2.626122832E-1,3.451646566E-1
4.150170254E0,-9.674779892E0,2.721835673E-1,3.164508045E-1
4.160170254E0,-9.679565430E0,2.961117923E-1,3.116651475E-1
4.170170254E0,-9.678967476E0,3.008974493E-1,2.829512656E-1
4.180170254E0,-9.702896118E0,3.152543902E-1,2.488535494E-1
4.190170254E0,-9.702297211E0,3.104687333E-1,1.962114573E-1
4.200170254E0,-9.750154495E0,3.008974493E-1,1.674975902E-1
4.210170254E0,-9.769296646E0,3.104687333E-1,1.674975902E-1
4.220170254E0,-9.754940033E0,3.056831062E-1,1.722832322E-1
4.230170254E0,-9.740582466E0,2.961117923E-1,2.057827413E-1
4.240170254E0,-9.726225853E0,2.913261652E-1,2.201396823E-1
4.250170254E0,-9.717252731E0,2.913261652E-1,2.440679073E-1
4.260170254E0,-9.702896118E0,2.482553422E-1,2.446661144E-1
4.270170254E0,-9.722038269E0,2.721835673E-1,2.590230405E-1
4.280170254E0,-9.717252731E0,2.721835673E-1,2.877369225E-1
4.290170254E0,-9.726823807E0,2.673979402E-1,3.062812984E-1
4.300170254E0,-9.751350403E0,2.961117923E-1,3.158525825E-1
4.310170254E0,-9.732208252E0,3.008974493E-1,3.110669553E-1
4.320170254E0,-9.722636223E0,3.104687333E-1,3.302095234E-1
4.330170254E0,-9.732208252E0,3.152543902E-1,3.684946895E-1
4.340170254E0,-9.708877563E0,3.104687333E-1,3.924229145E-1
4.350170254E0,-9.699306488E0,2.961117923E-1,3.876372576E-1
4.360170254E0,-9.704092026E0,2.721835673E-1,4.115654826E-1
4.370170254E0,-9.718449593E0,2.817548811E-1,4.498506486E-1
4.380170254E0,-9.713663101E0,2.673979402E-1,4.307080805E-1
4.390170254E0,-9.718449593E0,3.200400174E-1,3.924229145E-1
4.400170254E0,-9.713663101E0,3.678964674E-1,3.774677813E-1
4.410170254E0,-9.699306488E0,4.253242314E-1,3.870390654E-1
4.420170254E0,-9.680164337E0,4.301098585E-1,4.061816335E-1
4.430170254E0,-9.675378799E0,4.444667995E-1,4.061816335E-1
4.440170254E0,-9.671191216E0,4.588237405E-1,4.205385745E-1
4.450170254E0,-9.708877563E0,4.061816335E-1,4.253242314E-1
4.460170254E0,-9.737591743E0,3.678964674E-1,4.301098585E-1
4.470170254E0,-9.718449593E0,3.152543902E-1,4.540380836E-1
4.480170254E0,-9.699306488E0,2.386840582E-1,4.552344978E-1
4.490170254E0,-9.695118904E0,2.003988922E-1,4.935196638E-1
4.500170254E0,-9.670592308E0,1.621137410E-1,4.654040039E-1
4.510170254E0,-9.627521515E0,1.621137410E-1,4.271188378E-1
4.520170254E0,-9.593423843E0,1.764706671E-1,4.037888348E-1
4.530170254E0,-9.559925079E0,1.812563092E-1,3.942175210E-1
4.540170254E0,-9.555138588E0,1.716850251E-1,3.750749528E-1
4.550170254E0,-9.554540634E0,1.764706671E-1,3.128615618E-1
4.560170254E0,-9.574281693E0,2.386840582E-1,3.128615618E-1
4.570170254E0,-9.583852768E0,2.961117923E-1,3.218346536E-1
4.580170254E0,-9.631709099E0,3.726821244E-1,3.110669553E-1
4.590170254E0,-9.693922997E0,4.779663086E-1,3.146561682E-1
4.600170254E0,-9.732806206E0,5.497509837E-1,3.379862010E-1
4.610170254E0,-9.751948357E0,5.114658475E-1,3.427718580E-1
4.620170254E0,-9.751350403E0,4.779663086E-1,2.524427772E-1
4.630170254E0,-9.754940033E0,4.492524564E-1,1.046859920E-1
4.640170254E0,-9.744172096E0,3.966103494E-1,-3.828516230E-2
4.650170254E0,-9.748359680E0,3.631108403E-1,-4.307080805E-2
4.660170254E0,-9.719645500E0,2.482553422E-1,-3.589233849E-3
4.670170254E0,-9.662218094E0,9.990034252E-2,-2.153540403E-2
4.680170254E0,-9.642477036E0,2.333002165E-2,-8.315058798E-2
4.690170254E0,-9.665208817E0,-5.982056609E-4,-1.926222295E-1
4.700170254E0,-9.703494072E0,2.333002165E-2,-1.932204217E-1
4.710170254E0,-9.718449593E0,8.374879137E-3,-1.597209126E-1
4.720170254E0,-9.751948357E0,-2.033899166E-2,-1.262213886E-1
4.730170254E0,-9.780064583E0,-2.033899166E-2,-1.740778536E-1
4.740170254E0,-9.799206734E0,-2.991028316E-2,-1.842473447E-1
4.750170254E0,-9.765707016E0,-2.033899166E-2,-1.788634956E-1
4.760170254E0,-9.775279045E0,3.230310604E-2,-2.081755698E-1
4.770170254E0,-9.765707016E0,2.003988922E-1,-2.237289101E-1
4.780170254E0,-9.814162254E0,3.678964674E-1,-2.446661144E-1
4.790170254E0,-9.823733330E0,4.444667995E-1,-2.733799815E-1
4.800170254E0,-9.823135376E0,4.971089065E-1,-3.074777126E-1
4.810170254E0,-9.799206734E0,5.018945336E-1,-3.409772217E-1
4.820170254E0,-9.746564865E0,4.827519655E-1,-3.260220885E-1
4.830170254E0,-9.693922997E0,4.492524564E-1,-3.589234054E-1
4.840170254E0,-9.669396400E0,3.391826153E-1,-3.433700502E-1
4.850170254E0,-9.659825325E0,2.482553422E-1,-3.379862010E-1
4.860170254E0,-9.683753014E0,2.291127741E-1,-3.188436031E-1
4.870170254E0,-9.665208817E0,2.673979402E-1,-2.949153781E-1
4.880170254E0,-9.656235695E0,3.631108403E-1,-2.667997181E-1
4.890170254E0,-9.675378799E0,4.205385745E-1,-2.721835673E-1
4.900170254E0,-9.684949875E0,4.540380836E-1,-2.775674164E-1
4.910170254E0,-9.689735413E0,4.540380836E-1,-2.775674164E-1
4.920170254E0,-9.694520950E0,3.966103494E-1,-2.626122832E-1
4.930170254E0,-9.684351921E0,3.487538993E-1,-2.913261652E-1
4.940170254E0,-9.698708534E0,3.296113312E-1,-2.907279432E-1
4.950170254E0,-9.689137459E0,3.774677813E-1,-3.104687333E-1
4.960170254E0,-9.665208817E0,4.109672904E-1,-2.961117923E-1
4.970170254E0,-9.656833649E0,4.731806815E-1,-2.201396823E-1
4.980170254E0,-9.647262573E0,5.503492355E-1,-1.776670814E-1
4.990170254E0,-9.624530792E0,6.460621357E-1,-1.016949639E-1
5.000170254E0,-9.629914284E0,6.843472719E-1,-3.529413417E-2
5.010170254E0,-9.672985077E0,6.891329288E-1,-6.580262445E-3
5.020170254E0,-9.701101303E0,6.987041831E-1,-7.357929647E-2
5.030170254E0,-9.758528709E0,7.746763229E-1,-1.034895778E-1
5.040170254E0,-9.796813965E0,8.512466550E-1,-1.567298770E-1
5.050170254E0,-9.820143700E0,8.799605370E-1,-1.908276081E-1
5.060170254E0,-9.882357597E0,9.373882413E-1,-2.392822653E-1
5.070170254E0,-9.900901794E0,9.804590940E-1,-3.062812984E-1
5.080170254E0,-9.920044899E0,9.708877802E-1,-3.164508045E-1
5.090170254E0,-9.909874916E0,9.421738982E-1,-3.541377485E-1
5.100170254E0,-9.880562782E0,8.273184299E-1,-4.486542344E-1
5.110170254E0,-9.735796928E0,6.550351977E-1,-5.754738450E-1
5.120170254E0,-9.567103386E0,4.642075896E-1,-6.825526357E-1
5.130170254E0,-9.413364410E0,3.254238665E-1,-7.381857634E-1
5.140170254E0,-9.231510162E0,1.196411327E-1,-6.969096065E-1
5.150170254E0,-9.088538170E0,-1.142572835E-1,-5.748756528E-1
5.160170254E0,-9.036494255E0,-3.056831062E-1,-4.301098585E-1
5.170170254E0,-9.037093163E0,-4.115654826E-1,-2.907279432E-1
5.180170254E0,-9.223732948E0,-3.972085714E-1,-2.679961324E-1
5.190170254E0,-9.552745819E0,-2.925225794E-1,-4.528416991E-1
5.200170254E0,-9.871589661E0,-2.021935135E-1,-6.945167780E-1
5.210170254E0,-1.015573788E1,-7.357929647E-2,-1.051047325E0
5.220170254E0,-1.033101177E1,-8.374879509E-2,-1.281356573E0
5.230170254E0,-1.034536839E1,-1.890329868E-1,-1.252044439E0
5.240170254E0,-1.024726295E1,-3.134597540E-1,-9.637092948E-1
5.250170254E0,-1.006839943E1,-3.798605800E-1,-5.659025311E-1
5.260170254E0,-9.854840279E0,-4.516452849E-1,-3.248256743E-1
5.270170254E0,-9.751350403E0,-4.989035130E-1,-3.708875179E-2
5.280170254E0,-9.530014038E0,-4.552344978E-1,3.942175210E-1
5.290170254E0,-9.452845573E0,-2.494517565E-1,8.237292171E-1
5.300170254E0,-9.564710617E0,-5.982056609E-4,1.060020447E0
5.310170254E0,-9.700503349E0,2.865405083E-1,1.219143152E0
5.320170254E0,-9.988838196E0,6.687939167E-1,1.266999602E0
5.330170254E0,-1.013659477E1,9.702895880E-1,1.106082320E0
5.340170254E0,-1.024008465E1,1.252642632E0,8.309076428E-1
5.350170254E0,-1.033400249E1,1.439282775E0,5.521438122E-1
5.360170254E0,-1.024008465E1,1.434497118E0,1.704886109E-1
5.370170254E0,-1.022871876E1,1.266999602E0,-1.435693540E-2
5.380170254E0,-1.009172916E1,8.027920127E-1,-3.493520916E-1
5.390170254E0,-1.014317513E1,3.667000830E-1,-3.517449200E-1
5.400170254E0,-1.005045319E1,-1.501496136E-1,-4.139583111E-1
5.410170254E0,-9.844072342E0,-5.706881881E-1,-4.432703853E-1
5.420170254E0,-9.513264656E0,-9.200403094E-1,-4.241278172E-1
5.430170254E0,-9.145966530E0,-1.240080357E0,-2.189432681E-1
5.440170254E0,-8.861220360E0,-1.531406522E0,1.339980662E-1
5.450170254E0,-8.686544418E0,-1.636092424E0,5.186443329E-1
5.460170254E0,-8.578269005E0,-1.640878081E0,6.819544435E-1
5.470170254E0,-8.589036942E0,-1.487737536E0,8.572286963E-1
5.480170254E0,-8.594420433E0,-1.372882009E0,8.901300430E-1
5.490170254E0,-8.733802795E0,-1.147956610E0,8.823533654E-1
5.500170254E0,-8.858229637E0,-9.661021233E-1,8.901300430E-1
5.510170254E0,-9.040681839E0,-7.082754970E-1,8.440681696E-1
5.520170254E0,-9.174081802E0,-4.211367965E-1,7.310073376E-1
5.530170254E0,-9.287740707E0,-2.344966233E-1,5.521438122E-1
5.540170254E0,-9.459425926E0,-1.393819153E-1,4.402793646E-1
5.550170254E0,-9.564111710E0,-8.195417374E-2,3.296113312E-1
5.560170254E0,-9.664012909E0,-1.878365725E-1,3.152543902E-1
5.570170254E0,-9.702297211E0,-3.314059377E-1,3.206382394E-1
5.580170254E0,-9.721440315E0,-5.228317380E-1,4.175475538E-1
5.590170254E0,-9.745368004E0,-6.430711150E-1,4.851447940E-1
5.600170254E0,-9.798010826E0,-7.722834945E-1,5.192425251E-1
5.610170254E0,-9.817750931E0,-7.435696125E-1,5.282155871E-1
5.620170254E0,-9.889535904E0,-8.009973764E-1,5.425725579E-1
5.630170254E0,-9.966106415E0,-7.202396393E-1,5.461617708E-1
5.640170254E0,-1.001874828E1,-5.958128572E-1,5.210371017E-1
5.650170254E0,-1.008514881E1,-4.761717021E-1,4.671986103E-1
5.660170254E0,-1.013779163E1,-3.661018610E-1,4.133601189E-1
5.670170254E0,-1.021914768E1,-2.847459018E-1,3.978067636E-1
5.680170254E0,-1.031486034E1,-2.321037948E-1,3.918247223E-1
5.690170254E0,-1.045304585E1,-2.662015259E-1,3.290131092E-1
5.700170254E0,-1.068754196E1,-3.002992272E-1,3.804588020E-1
5.710170254E0,-1.097527885E1,-4.444667995E-1,4.989035130E-1
5.720170254E0,-1.112303638E1,-5.072783828E-1,4.743770957E-1
5.730170254E0,-1.127258778E1,-5.503492355E-1,6.454638839E-1
5.740170254E0,-1.131087303E1,-7.136593461E-1,7.136593461E-1
5.750170254E0,-1.119123173E1,-7.513462901E-1,7.148557901E-1
5.760170254E0,-1.104885864E1,-8.327022791E-1,8.356932998E-1
5.770170254E0,-1.088255692E1,-9.326026440E-1,1.028913736E0
5.780170254E0,-1.080299568E1,-1.028315544E0,1.287936807E0
5.790170254E0,-1.072283649E1,-1.013958573E0,1.441077471E0
5.800170254E0,-1.065344429E1,-8.506484628E-1,1.684547186E0
5.810170254E0,-1.070249748E1,-7.357929349E-1,1.797608018E0
5.820170254E0,-1.134138107E1,-5.455635786E-1,1.543370605E0
5.830170254E0,-1.195932770E1,1.663011760E-1,8.075776696E-1
5.840170254E0,-1.304148197E1,4.079762697E-1,-3.050848842E-1
5.850170254E0,-1.336810207E1,4.313062727E-1,-2.037488461E0
5.860170254E0,-1.315813160E1,2.787638307E-1,-4.452444553E0
5.870170254E0,-1.297627735E1,2.937189937E-1,-5.746363640E0
5.880170254E0,-1.240319633E1,2.709871531E-1,-6.244070530E0
5.890170254E0,-1.119661522E1,5.030909777E-1,-5.897709846E0
5.900170254E0,-1.010608673E1,7.501499057E-1,-5.333003521E0
5.910170254E0,-8.964112282E0,1.102493048E0,-4.630111694E0
5.920170254E0,-8.049455643E0,1.325025558E0,-3.664607763E0
5.930170254E0,-7.331010342E0,1.475175142E0,-2.538186550E0
5.940170254E0,-7.133602619E0,1.643270969E0,-1.567897081E0
5.950170254E0,-7.071987152E0,1.868196249E0,-8.572286963E-1
5.960170254E0,-7.320840836E0,2.097907305E0,-3.397808075E-1
5.970170254E0,-7.724031448E0,2.297708035E0,-1.339980662E-1
5.980170254E0,-8.030911446E0,2.330609322E0,-6.939185411E-2
5.990170254E0,-8.418548584E0,2.042274237E0,7.836493850E-2
6.000170254E0,-8.696115494E0,1.620539188E0,1.794617027E-1
6.010170254E0,-8.863613129E0,1.159920812E0,2.967100143E-1
6.020170254E0,-9.215357780E0,6.131607890E-1,2.171486616E-1
6.030170254E0,-9.565308571E0,1.333998591E-1,-1.597209126E-1
6.040170254E0,-9.872187614E0,-2.500499785E-1,-5.988038778E-1
6.050170254E0,-1.002114105E1,-4.899304509E-1,-1.027717352E0
6.060170254E0,-1.001815033E1,-6.340979934E-1,-1.447059512E0
6.070170254E0,-9.771689415E0,-6.861419082E-1,-1.760519266E0
6.080170254E0,-9.349954605E0,-6.323033571E-1,-1.829911113E0
6.090170254E0,-8.978468895E0,-4.875376225E-1,-1.680359721E0
6.100170254E0,-8.454441071E0,-3.858426511E-1,-1.500299811E0
6.110170254E0,-8.064410210E0,-3.708875179E-1,-1.220339537E0
6.120170254E0,-7.827520847E0,-2.267199457E-1,-9.475577474E-1
6.130170254E0,-7.810771465E0,-1.304088384E-1,-6.807580590E-1
6.140170254E0,-7.856235027E0,2.045863420E-1,-4.444667995E-1
6.150170254E0,-7.853243828E0,2.763710022E-1,-2.440679073E-1
6.160170254E0,-7.945367813E0,3.720839322E-1,-7.357929647E-2
6.170170254E0,-8.213961601E0,6.059823632E-1,-2.931207791E-2
6.180170254E0,-8.639883995E0,7.106683254E-1,4.785645287E-3
6.190170254E0,-8.906683922E0,1.045065284E0,-2.715853751E-1
6.200170254E0,-9.151350021E0,1.255035520E0,-2.081755698E-1
6.210170254E0,-9.230911255E0,1.135394335E0,-3.702892959E-1
6.220170254E0,-9.038289070E0,1.088136077E0,-5.497509837E-1
6.230170254E0,-8.919844627E0,1.116850019E0,-4.540380836E-1
6.240170254E0,-8.791828156E0,1.069591761E0,-2.997010350E-1
6.250170254E0,-8.592626572E0,1.045663476E0,-3.529413417E-2
6.260170254E0,-8.437690735E0,1.003190875E0,3.146561682E-1
6.270170254E0,-8.457431793E0,9.314061999E-1,4.779663086E-1
6.280170254E0,-8.545368195E0,8.111668825E-1,6.885347366E-1
6.290170254E0,-8.731410027E0,6.143572330E-1,6.885347366E-1
6.300170254E0,-8.935996056E0,4.271188378E-1,6.167500615E-1
6.310170254E0,-9.164510727E0,2.685943544E-1,5.347958803E-1
6.320170254E0,-9.473783493E0,9.571290761E-2,4.097708762E-1
6.330170254E0,-9.793225288E0,-2.991028316E-2,2.506481707E-1
6.340170254E0,-1.017488003E1,-1.788634956E-1,1.680957973E-1
6.350170254E0,-1.051825047E1,-2.757728100E-1,8.494520187E-2
6.360170254E0,-1.086102200E1,-4.103690982E-1,-5.024927482E-2
6.370170254E0,-1.114696407E1,-4.785645306E-1,-1.902294010E-1
6.380170254E0,-1.138086224E1,-4.450650215E-1,-2.255235314E-1
6.390170254E0,-1.160578823E1,-4.313062727E-1,-1.890329868E-1
6.400170254E0,-1.182293701E1,-4.845465720E-1,2.033899166E-2
6.410170254E0,-1.197727394E1,-6.239284873E-1,2.781656384E-1
6.420170254E0,-1.208375454E1,-6.526423693E-1,4.689932466E-1
6.430170254E0,-1.221057415E1,-6.723831892E-1,7.405785918E-1
6.440170254E0,-1.216989613E1,-6.963114142E-1,1.070788145E0
6.450170254E0,-1.201077366E1,-7.004988194E-1,1.501496196E0
6.460170254E0,-1.182652569E1,-6.424728632E-1,1.856232166E0
6.470170254E0,-1.167697430E1,-1.537388563E-1,2.173879385E0
6.480170254E0,-1.252762318E1,-2.518445849E-1,2.063809633E0
6.490170254E0,-1.312044430E1,-4.779663086E-1,8.572286963E-1
6.500170254E0,-1.282672596E1,5.377869010E-1,-9.547362328E-1
6.510170254E0,-1.285902882E1,1.529611826E0,-3.207578659E0
6.520170254E0,-1.300259781E1,1.907677889E0,-5.246861935E0
6.530170254E0,-1.279920864E1,2.214557409E0,-6.303891182E0
6.540170254E0,-1.165184975E1,2.422732830E0,-6.908677101E0
6.550170254E0,-9.706484795E0,2.072782516E0,-6.644270420E0
6.560170254E0,-8.429315567E0,1.822134495E0,-5.391029358E0
6.570170254E0,-7.924430370E0,1.459023595E0,-4.396213531E0
6.580170254E0,-7.309474945E0,8.285148144E-1,-3.364906788E0
6.590170254E0,-6.915257454E0,1.154536903E-1,-2.181057930E0
6.600170254E0,-6.821937561E0,-3.918247223E-1,-1.092323542E0
6.610170254E0,-7.041478634E0,-8.470591903E-1,-4.073780477E-1
6.620170254E0,-7.330412388E0,-1.288534999E0,-1.435693540E-2
6.630170254E0,-7.709674358E0,-1.246062398E0,1.686939895E-1
6.640170254E0,-7.992625713E0,-1.036092162E0,2.273181528E-1
6.650170254E0,-8.361719131E0,-4.336991012E-1,2.207378894E-1
6.660170254E0,-8.896514893E0,1.447657645E-1,-5.982056633E-2
6.670170254E0,-9.540184021E0,7.561319470E-1,-5.030909777E-1
6.680170254E0,-9.795618057E0,1.162911773E0,-1.019342422E0
6.690170254E0,-9.991828918E0,1.636690736E0,-1.702493310E0
6.700170254E0,-9.896714211E0,1.813759565E0,-2.315055847E0
6.710170254E0,-9.473184586E0,1.700100541E0,-2.678765059E0
6.720170254E0,-9.229117393E0,1.585843205E0,-2.652443886E0
6.730170254E0,-8.986844063E0,9.684949517E-1,-2.297708035E0
6.740170254E0,-8.633902550E0,3.176472187E-1,-1.956132531E0
6.750170254E0,-8.421539307E0,-2.470589429E-1,-1.439282775E0
6.760170254E0,-8.042277336E0,-1.045663476E0,-7.902296782E-1
6.770170254E0,-7.714460373E0,-1.658226132E0,-3.248256743E-1
6.780170254E0,-7.759923935E0,-1.835893154E0,6.759724021E-2
6.790170254E0,-7.904689789E0,-2.046461582E0,2.500499785E-1
6.800170254E0,-8.018946648E0,-2.195414782E0,2.165504545E-1
6.810170254E0,-8.210372925E0,-2.267797709E0,3.068794906E-1
6.820170254E0,-8.527421951E0,-2.129612207E0,4.516452849E-1
6.830170254E0,-8.772088051E0,-1.684547186E0,4.325026870E-1
6.840170254E0,-9.068199158E0,-1.479362607E0,3.284149170E-1
6.850170254E0,-9.287740707E0,-1.326820135E0,1.872383654E-1
6.860170254E0,-9.296115875E0,-1.264606714E0,6.699903309E-2
6.870170254E0,-9.075378418E0,-1.187438250E0,-5.623133108E-2
6.880170254E0,-8.756534576E0,-1.325623751E0,1.764706671E-1
6.890170254E0,-8.644071579E0,-1.487737536E0,5.419743061E-1
6.900170254E0,-8.679366112E0,-1.545763373E0,7.615157962E-1
6.910170254E0,-8.794819832E0,-1.497906923E0,8.512466550E-1
6.920170254E0,-8.908478737E0,-1.320838094E0,6.771687865E-1
6.930170254E0,-9.046066284E0,-1.230509043E0,4.701896608E-1
6.940170254E0,-9.164510727E0,-1.149153113E0,3.302095234E-1
6.950170254E0,-9.416953087E0,-9.535398483E-1,7.836493850E-2
6.960170254E0,-9.811170578E0,-7.483552694E-1,-2.697907388E-1
6.970170254E0,-1.044108200E1,-4.624129832E-1,-5.341976285E-1
6.980170254E0,-1.117208862E1,-1.621137410E-1,-7.465606928E-1
6.990170254E0,-1.171585751E1,4.247260094E-2,-9.577272534E-1
7.000170254E0,-1.190788174E1,-1.495514214E-1,-7.902296782E-1
7.010170254E0,-1.203470135E1,-2.889333367E-1,-4.462614357E-1
7.020170254E0,-1.224347496E1,-4.618147612E-1,2.213360928E-2
7.030170254E0,-1.230030441E1,-4.474578202E-1,5.802595019E-1
7.040170254E0,-1.220578861E1,-2.943171859E-1,1.244267821E0
7.050170254E0,-1.227577877E1,-4.570291340E-1,1.741974831E0
7.060170254E0,-1.325205040E1,4.845465720E-2,1.650449395E0
7.070170254E0,-1.398903942E1,9.948160052E-1,2.333002090E-1
7.080170254E0,-1.411107349E1,9.996016622E-1,-1.368096352E0
7.090170254E0,-1.434676647E1,5.676971674E-1,-3.516851187E0
7.100170254E0,-1.450648689E1,-1.172483116E-1,-6.236892223E0
7.110170254E0,-1.361396408E1,-8.285148144E-1,-6.464210510E0
7.120170254E0,-1.198744297E1,-1.079162955E0,-5.787041664E0
7.130170254E0,-1.017966557E1,-1.031904817E0,-4.613960266E0
7.140170254E0,-9.029315948E0,-5.790630579E-1,-3.772883177E0
7.150170254E0,-8.160721779E0,1.513460279E-1,-3.122035265E0
7.160170254E0,-7.603193760E0,6.747759581E-1,-2.391027927E0
7.170170254E0,-7.120441914E0,1.537986755E0,-1.332802176E0
7.180170254E0,-7.218547821E0,1.968694806E0,-5.198407173E-1
7.190170254E0,-7.345965385E0,2.097309113E0,-1.585244983E-1
7.200170254E0,-7.680362701E0,2.187638044E0,3.978067636E-1
7.210170254E0,-8.139185905E0,2.042872429E0,1.050449133E0
7.220170254E0,-8.452047348E0,1.582852125E0,1.405185103E0
7.230170254E0,-8.651249886E0,9.499505758E-1,1.403390527E0
7.240170254E0,-8.937790871E0,1.974078715E-1,9.385846853E-1
7.250170254E0,-9.268598557E0,-3.732803464E-1,-1.010967568E-1
7.260170254E0,-9.387641907E0,-1.092323542E0,-1.162313581E0
7.270170254E0,-9.323633194E0,-1.594816327E0,-1.932802439E0
7.280170254E0,-9.260223389E0,-2.064407825E0,-2.564507723E0
7.290170254E0,-9.038289070E0,-2.322234392E0,-2.746960402E0
7.300170254E0,-8.743373871E0,-2.345564365E0,-2.505883455E0
7.310170254E0,-8.627920151E0,-2.182254314E0,-2.009372711E0
7.320170254E0,-8.481958389E0,-1.640878081E0,-1.252642632E0
7.330170254E0,-8.417351723E0,-5.724828243E-1,-6.149554253E-1
7.340170254E0,-8.132007599E0,5.246263742E-1,-1.142572835E-1
7.350170254E0,-7.844270706E0,1.124028444E0,2.273181528E-1
7.360170254E0,-7.680362701E0,1.814357758E0,5.198407173E-1
7.370170254E0,-7.697112083E0,2.321636200E0,6.975077987E-1
7.380170254E0,-7.822137356E0,2.647060156E0,6.849454641E-1
7.390170254E0,-7.935796261E0,2.757129908E0,5.258227587E-1
7.400170254E0,-8.206783295E0,2.804388046E0,2.560320199E-1
7.410170254E0,-8.448458672E0,2.526222467E0,5.084748194E-2
7.420170254E0,-8.566305161E0,2.161915302E0,-5.742774159E-2
7.430170254E0,-8.751749039E0,1.773679733E0,-1.178465188E-1
7.440170254E0,-8.860622406E0,1.447657704E0,-1.351944804E-1
7.450170254E0,-8.864809990E0,1.112064362E0,-1.471585929E-1
7.460170254E0,-8.836095810E0,8.057830334E-1,-7.298108935E-2
7.470170254E0,-8.721838951E0,4.899304509E-1,1.256231815E-1
7.480170254E0,-8.551349640E0,2.506481707E-1,3.768695593E-1
7.490170254E0,-8.510671616E0,1.310070455E-1,7.028916478E-1
7.500170254E0,-8.569295883E0,-1.734796353E-2,9.714859724E-1
7.510170254E0,-8.766105652E0,-2.273181453E-2,1.060618639E0
7.520170254E0,-9.153144836E0,-2.333002165E-2,9.912267923E-1
7.530170254E0,-9.577272415E0,-3.409772366E-2,7.974081635E-1
7.540170254E0,-1.011805058E1,-6.400800496E-2,2.440679073E-1
7.550170254E0,-1.056371403E1,-1.734796353E-2,-2.799602449E-1
7.560170254E0,-1.094477081E1,2.991028316E-2,-4.695914388E-1
7.570170254E0,-1.137667561E1,4.785645381E-2,-3.290131092E-1
7.580170254E0,-1.211127186E1,2.213360928E-2,1.052841991E-1
7.590170254E0,-1.277049446E1,4.486542568E-2,5.928218365E-1
7.600170254E0,-1.303190994E1,-2.751746029E-2,1.021735311E0
7.610170254E0,-1.304447269E1,-2.578266263E-1,1.534397483E0
7.620170254E0,-1.299900913E1,-7.220342159E-1,1.925025821E0
7.630170254E0,-1.285603809E1,-1.272383451E0,2.178664923E0
7.640170254E0,-1.264726448E1,-1.277169108E0,2.356930256E0
7.650170254E0,-1.276869965E1,-1.119242787E0,1.977667928E0
7.660170254E0,-1.304207993E1,-1.986641049E0,1.035493970E0
7.670170254E0,-1.249292660E1,-1.650449395E0,-7.884350419E-1
7.680170254E0,-1.239482117E1,-6.299105883E-1,-2.667997360E0
7.690170254E0,-1.298405361E1,7.674978375E-1,-4.798805714E0
7.700170254E0,-1.306122208E1,2.160718918E0,-5.788836002E0
7.710170254E0,-1.222433281E1,2.761915445E0,-5.945566177E0
7.720170254E0,-1.021376324E1,2.536391973E0,-6.106483459E0
7.730170254E0,-9.124430656E0,2.500499725E0,-6.002993584E0
7.740170254E0,-8.900103569E0,2.012363911E0,-5.166702271E0
7.750170254E0,-8.601598740E0,1.381256819E0,-3.951148272E0
7.760170254E0,-8.048258781E0,1.800599098E-1,-2.190030813E0
7.770170254E0,-7.481758118E0,-8.243274093E-1,-9.888339639E-1
7.780170254E0,-7.359724045E0,-1.619342685E0,-4.133601189E-1
7.790170254E0,-7.585247993E0,-2.041077614E0,-2.590230405E-1
7.800170254E0,-8.173283577E0,-2.296511650E0,-1.752742529E-1
7.810170254E0,-8.593822479E0,-2.206182480E0,-2.362912297E-1
7.820170254E0,-8.675776482E0,-1.703689694E0,-3.170489967E-1
7.830170254E0,-8.734998703E0,-8.321040869E-1,-2.757728100E-1
7.840170254E0,-8.912666321E0,1.399801224E-1,-5.132604837E-1
7.850170254E0,-9.284749985E0,8.811569214E-1,-8.464609981E-1
7.860170254E0,-9.600004196E0,1.465005636E0,-1.010369420E0
7.870170254E0,-9.705886841E0,2.182852507E0,-1.140778184E0
7.880170254E0,-9.582057953E0,2.715255499E0,-1.248455167E0
7.890170254E0,-9.212965012E0,2.605783939E0,-1.297508121E0
7.900170254E0,-9.008378983E0,2.136790514E0,-1.054038405E0
7.910170254E0,-8.700901031E0,1.184447169E0,-9.254241586E-1
7.920170254E0,-8.493324280E0,-2.805584669E-1,-7.800601721E-1
7.930170254E0,-8.244470596E0,-1.232901812E0,-5.180460811E-1
7.940170254E0,-7.963313580E0,-1.634896040E0,-2.554338276E-1
7.950170254E0,-7.740781307E0,-2.180459738E0,1.465603858E-1
7.960170254E0,-7.664210796E0,-2.462812662E0,2.638086975E-1
7.970170254E0,-7.812565804E0,-2.568096876E0,2.590230405E-1
7.980170254E0,-8.036892891E0,-2.655434847E0,2.009970993E-1
7.990170254E0,-8.333602905E0,-2.512463808E0,1.788634956E-1
8.000170254E0,-8.731410027E0,-2.134995937E0,2.398804724E-1
8.010170254E0,-8.890532494E0,-1.694716692E0,2.452643216E-1
8.020170254E0,-8.967700958E0,-1.354337573E0,2.901297510E-1
8.030170254E0,-8.997013092E0,-1.153340459E0,2.739782035E-1
8.040170254E0,-8.824729919E0,-9.996016622E-1,2.356930375E-1
8.050170254E0,-8.677571297E0,-9.517452121E-1,3.655036688E-1
8.060170254E0,-8.511868477E0,-9.607182741E-1,6.011967063E-1
8.070170254E0,-8.456234932E0,-9.990034699E-1,7.974081635E-1
8.080170254E0,-8.389236450E0,-1.022931695E0,7.938188910E-1
8.090170254E0,-8.402397156E0,-9.942178130E-1,6.448656917E-1
8.100170254E0,-8.467600822E0,-8.985049129E-1,4.193421602E-1
8.110170254E0,-8.682356834E0,-7.316055298E-1,2.733799815E-1
8.120170254E0,-8.973084450E0,-6.508477330E-1,1.082752272E-1
8.130170254E0,-9.390632629E0,-5.174478889E-1,-3.349951804E-1
8.140170254E0,-1.004088211E1,-4.283152521E-1,-9.948160052E-1
8.150170254E0,-1.079402256E1,-2.667997181E-1,-1.364507079E0
8.160170254E0,-1.129711437E1,-4.307080805E-1,-1.185045362E0
8.170170254E0,-1.167996597E1,-9.637092948E-1,-4.145565331E-1
8.180170254E0,-1.208734322E1,-1.299900889E0,4.211367965E-1
8.190170254E0,-1.259402370E1,-1.080359459E0,9.798609018E-1
8.200170254E0,-1.279262829E1,-7.357929349E-1,1.253240824E0
8.210170254E0,-1.261496067E1,-6.041877344E-2,1.579262972E0
8.220170254E0,-1.201196957E1,5.347958803E-1,1.989632010E0
8.230170254E0,-1.164586735E1,7.130611539E-1,2.177468538E0
8.240170254E0,-1.203888893E1,7.118647099E-1,1.663609982E0
8.250170254E0,-1.235294724E1,1.420140266E0,6.717849374E-1
8.260170254E0,-1.270528984E1,1.859821439E0,-3.038884699E-1
8.270170254E0,-1.340339565E1,1.154536963E0,-2.004587173E0
8.280170254E0,-1.420140266E1,-3.750749528E-1,-4.799404144E0
8.290170254E0,-1.383230972E1,-1.427916884E0,-6.475576401E0
8.300170254E0,-1.212323570E1,-1.859821439E0,-6.570691109E0
8.310170254E0,-1.073240757E1,-1.708475351E0,-5.945566177E0
8.320170254E0,-9.693922997E0,-1.011565804E0,-4.920839787E0
8.330170254E0,-9.196813583E0,-3.302095234E-1,-3.837489367E0
8.340170254E0,-8.866603851E0,3.792623878E-1,-2.861217737E0
8.350170254E0,-8.426324844E0,1.228116274E0,-1.884347796E0
8.360170254E0,-8.391629219E0,1.793420553E0,-9.373882413E-1
8.370170254E0,-8.440083504E0,2.176272154E0,-2.715853751E-1
8.380170254E0,-8.549555779E0,2.161915302E0,2.919243574E-1
8.390170254E0,-8.604590416E0,1.701895118E0,6.628118753E-1
8.400170254E0,-8.678768158E0,1.189232826E0,1.138983607E0
8.410170254E0,-8.687741280E0,4.516452849E-1,1.325623751E0
8.420170254E0,-8.666803360E0,-5.623133108E-2,1.214955688E0
8.430170254E0,-8.575876236E0,-6.448656917E-1,7.369893789E-1
8.440170254E0,-8.487939835E0,-1.089930773E0,-4.307080805E-2
8.450170254E0,-8.492127419E0,-1.435095429E0,-6.472585201E-1
8.460170254E0,-8.428717613E0,-1.593021631E0,-1.329213023E0
8.470170254E0,-8.420941353E0,-1.502094388E0,-1.755135417E0
8.480170254E0,-8.267202377E0,-1.377069473E0,-1.898106575E0
8.490170254E0,-8.091329575E0,-1.252044439E0,-1.778465390E0
8.500170254E0,-8.013563156E0,-7.489534616E-1,-1.485344648E0
8.510170254E0,-8.103293419E0,1.322034448E-1,-1.224527001E0
8.520170254E0,-8.107481003E0,5.341976285E-1,-8.452646136E-1
8.530170254E0,-8.079963684E0,8.219345808E-1,-7.274180651E-1
8.540170254E0,-8.196614265E0,1.262213945E0,-5.928218365E-1
8.550170254E0,-8.447261810E0,1.697707653E0,-4.785645306E-1
8.560170254E0,-8.556734085E0,2.008774519E0,-6.580262184E-1
8.570170254E0,-8.604590416E0,2.003390789E0,-6.538388133E-1
8.580170254E0,-8.882756233E0,1.988435626E0,-5.024927258E-1
8.590170254E0,-9.059226990E0,1.719841242E0,-4.875376225E-1
8.600170254E0,-9.246464729E0,1.460818172E0,-3.577269912E-1
8.610170254E0,-9.394221306E0,1.149153113E0,-3.517449200E-1
8.620170254E0,-9.416355133E0,9.625129104E-1,-4.989035130E-1
8.630170254E0,-9.256634712E0,6.323033571E-1,-6.819544435E-1
8.640170254E0,-8.964112282E0,3.696911037E-1,-7.256234884E-1
8.650170254E0,-8.687741280E0,1.980060786E-1,-5.264210105E-1
8.660170254E0,-8.689535141E0,1.501496136E-1,-2.590230405E-1
8.670170254E0,-8.772088051E0,-1.316052489E-2,-4.307080805E-2
8.680170254E0,-8.878568649E0,-1.088734269E-1,1.238285750E-1
8.690170254E0,-9.051449776E0,-1.812563092E-1,2.763710022E-1
8.700170254E0,-9.218349457E0,-1.674975902E-1,2.129612118E-1
8.710170254E0,-9.447462082E0,-1.776670814E-1,1.064806059E-1
8.720170254E0,-9.838089943E0,-2.512463741E-2,-1.459621787E-1
8.730170254E0,-1.017069244E1,2.231307179E-1,-4.366901219E-1
8.740170254E0,-1.030827999E1,4.767699242E-1,-6.735795736E-1
8.750170254E0,-1.047577763E1,7.202396393E-1,-6.957131624E-1
8.760170254E0,-1.084068298E1,8.536394835E-1,-5.940182209E-1
8.770170254E0,-1.149272728E1,7.423732281E-1,-3.158525825E-1
8.780170254E0,-1.214477158E1,5.300102234E-1,-2.751746029E-2
8.790170254E0,-1.240977669E1,3.858426511E-1,2.679961324E-1
8.800170254E0,-1.257188988E1,1.884347796E-1,8.799605370E-1
8.810170254E0,-1.273460197E1,5.042873621E-1,1.383051515E0
8.820170254E0,-1.391545963E1,-2.787638307E-1,1.576271892E0
8.830170254E0,-1.504068470E1,-1.790429592E0,9.296116233E-1
8.840170254E0,-1.433659649E1,-1.573280931E0,-1.795215130E0
8.850170254E0,-1.416730499E1,-3.942175210E-1,-4.899304390E0
8.860170254E0,-1.430907917E1,1.178465188E-1,-6.509075642E0
8.870170254E0,-1.365105343E1,8.135597110E-1,-7.064210415E0
8.880170254E0,-1.179960632E1,1.632503271E0,-6.732206345E0
8.890170254E0,-9.698708534E0,2.120639086E0,-5.856433392E0
8.900170254E0,-8.476573944E0,2.176272154E0,-4.935196877E0
8.910170254E0,-7.674380302E0,1.742573142E0,-4.033102512E0
8.920170254E0,-7.086942673E0,9.535398483E-1,-3.096312523E0
8.930170254E0,-6.822535515E0,1.495514214E-1,-1.794018745E0
8.940170254E0,-6.567699909E0,-6.975077987E-1,-4.480560422E-1
8.950170254E0,-6.963712215E0,-1.311864972E0,1.938186288E-1
8.960170254E0,-7.788039684E0,-1.869392633E0,1.196411322E-3
8.970170254E0,-8.502895355E0,-2.277967215E0,-2.207378894E-1
8.980170254E0,-9.125627518E0,-2.116451740E0,-7.567301393E-1
8.990170254E0,-9.510871887E0,-1.609771490E0,-1.202393413E0
9.000170254E0,-9.711270332E0,-8.488538265E-1,-1.500898004E0
9.010170254E0,-9.565906525E0,-2.494517565E-1,-1.886740685E0
9.020170254E0,-9.527621269E0,4.163511395E-1,-2.096710920E0
9.030170254E0,-9.561718941E0,1.244866014E0,-2.217548370E0
9.040170254E0,-9.495916367E0,1.848455548E0,-2.216351986E0
9.050170254E0,-9.258428574E0,2.059622049E0,-2.101496458E0
9.060170254E0,-8.906683922E0,1.964507341E0,-1.773679733E0
9.070170254E0,-8.493922234E0,1.309472203E0,-1.144965649E0
9.080170254E0,-8.201997757E0,4.815555513E-1,-9.170492887E-1
9.090170254E0,-8.140382767E0,-4.139583111E-1,-6.616154313E-1
9.100170254E0,-7.981858253E0,-1.347757339E0,-4.486542344E-1
9.110170254E0,-7.814958572E0,-1.955534339E0,-2.470589429E-1
9.120170254E0,-7.771289825E0,-2.300100803E0,-2.057827413E-1
9.130170254E0,-7.807780266E0,-2.477767944E0,-3.912265003E-1
9.140170254E0,-7.902296543E0,-2.592623234E0,-5.012963414E-1
9.150170254E0,-8.109275818E0,-2.435295343E0,-3.409772217E-1
9.160170254E0,-8.335397720E0,-2.124228239E0,-2.829512656E-1
9.170170254E0,-8.657232285E0,-1.856830359E0,-1.483550072E-1
9.180170254E0,-8.873184204E0,-1.540977836E0,-1.429711580E-1
9.190170254E0,-8.950352669E0,-1.287338614E0,-1.734796464E-1
9.200170254E0,-8.922237396E0,-1.024128079E0,-1.752742529E-1
9.210170254E0,-8.774480820E0,-9.469595551E-1,-1.130608693E-1
9.220170254E0,-8.617751122E0,-1.009172916E0,5.144568533E-2
9.230170254E0,-8.498707771E0,-1.027717352E0,1.621137410E-1
9.240170254E0,-8.419146538E0,-1.061216831E0,3.397808075E-1
9.250170254E0,-8.434700012E0,-1.056431174E0,4.923232496E-1
9.260170254E0,-8.587840080E0,-1.023529887E0,5.629115105E-1
9.270170254E0,-8.740383148E0,-8.847461939E-1,4.271188378E-1
9.280170254E0,-9.082556725E0,-8.422735929E-1,1.328016520E-1
9.290170254E0,-9.434301376E0,-7.812566161E-1,-1.567298770E-1
9.300170254E0,-9.696315765E0,-5.802595019E-1,-3.607180119E-1
9.310170254E0,-1.010668468E1,-2.506481707E-1,-5.665007830E-1
9.320170254E0,-1.078983593E1,5.383851007E-2,-7.405785918E-1
9.330170254E0,-1.133480072E1,2.249253243E-1,-8.512466550E-1
9.340170254E0,-1.154477119E1,2.201396823E-1,-8.668000102E-1
9.350170254E0,-1.165723324E1,8.973085321E-3,-5.030909777E-1
9.360170254E0,-1.163689518E1,-2.398804724E-1,3.888336942E-2
9.370170254E0,-1.164467144E1,-4.223332107E-1,5.132604837E-1
9.380170254E0,-1.163809109E1,-4.319044948E-1,8.955138922E-1
9.390170254E0,-1.157049370E1,-3.116651475E-1,1.406381488E0
9.400170254E0,-1.135095215E1,-1.770688742E-1,2.018944025E0
9.410170254E0,-1.197488117E1,-1.639083475E-1,2.338984251E0
9.420170254E0,-1.241815090E1,4.959124923E-1,1.347159147E0
9.430170254E0,-1.299422359E1,1.557727575E0,2.632104978E-2
9.440170254E0,-1.401117325E1,1.521835208E0,-1.447657704E0
9.450170254E0,-1.480200100E1,1.218544960E0,-4.867599487E0
9.460170254E0,-1.464885998E1,4.235295951E-1,-8.386843681E0
9.470170254E0,-1.285364532E1,-2.524427772E-1,-9.119645119E0
9.480170254E0,-1.055533886E1,-5.635097623E-1,-7.491329670E0
9.490170254E0,-9.435498238E0,-4.552344978E-1,-5.721239090E0
9.500170254E0,-8.688937187E0,-9.451649338E-2,-4.027120590E0
9.510170254E0,-8.131409645E0,7.477571070E-2,-2.605185747E0
9.520170254E0,-7.770691395E0,-2.033899166E-2,-1.564906001E0
9.530170254E0,-7.630113125E0,-9.690931439E-2,-1.167099237E0
9.540170254E0,-7.619943619E0,-7.776673883E-2,-5.790630579E-1
9.550170254E0,-7.855038643E0,-1.405783296E-1,1.555334777E-1
9.560170254E0,-7.933403492E0,-3.224328458E-1,3.948157430E-1
9.570170254E0,-7.980661869E0,-7.010970116E-1,4.785645306E-1
9.580170254E0,-8.219346046E0,-8.596215248E-1,4.731806815E-1
9.590170254E0,-8.276175499E0,-8.835497499E-1,4.013960063E-1
9.600170254E0,-8.331210136E0,-9.894321561E-1,9.571290761E-2
9.610170254E0,-8.475975990E0,-9.846464992E-1,-3.876372576E-1
9.620170254E0,-8.524430275E0,-8.219345808E-1,-9.625129104E-1
9.630170254E0,-8.497511864E0,-8.937192559E-1,-1.339382529E0
9.640170254E0,-8.538787842E0,-8.650053740E-1,-1.564307809E0
9.650170254E0,-8.746364594E0,-7.124629617E-1,-2.006381750E0
9.660170254E0,-8.879764557E0,-4.348955154E-1,-2.105085611E0
9.670170254E0,-9.062217712E0,-8.554340899E-2,-2.123031855E0
9.680170254E0,-9.428917885E0,5.838487148E-1,-1.896311998E0
9.690170254E0,-9.705288887E0,1.201196909E0,-1.591825247E0
9.700170254E0,-9.713065147E0,1.642074585E0,-1.265803218E0
9.710170254E0,-9.615557671E0,1.986641049E0,-9.900303483E-1
9.720170254E0,-9.509077072E0,2.236092806E0,-5.994020700E-1
9.730170254E0,-9.457631111E0,2.303091764E0,-4.564309120E-1
9.740170254E0,-9.266803741E0,2.193620205E0,-3.876372576E-1
9.750170254E0,-9.119645119E0,2.155933142E0,-2.763710022E-1
9.760170254E0,-8.860622406E0,1.921436548E0,-2.775674164E-1
9.770170254E0,-8.636295319E0,1.711466432E0,-1.836491376E-1
9.780170254E0,-8.449056625E0,1.505683661E0,-1.758724600E-1
9.790170254E0,-8.352746010E0,1.271187067E0,-1.926222295E-1
9.800170254E0,-8.255238533E0,9.457631707E-1,-3.523431420E-1
9.810170254E0,-8.153543472E0,6.155536175E-1,-4.157529473E-1
9.820170254E0,-8.053044319E0,4.576273263E-1,-4.283152521E-1
9.830170254E0,-7.991429329E0,2.422732860E-1,-2.452643216E-1
9.840170254E0,-8.046463966E0,7.477571070E-2,5.682953820E-2
9.850170254E0,-8.335397720E0,-6.939185411E-2,3.619144261E-1
9.860170254E0,-8.688937187E0,-1.663011760E-1,3.840480447E-1
9.870170254E0,-9.305088997E0,-2.632105052E-1,2.847459018E-1
9.880170254E0,-9.952347755E0,-6.400800496E-2,-1.369891018E-1
9.890170254E0,-1.043270683E1,1.028913707E-1,-5.712863803E-1
9.900170254E0,-1.065224838E1,1.740778536E-1,-6.687939167E-1
9.910170254E0,-1.089212894E1,1.160518974E-1,-4.887340367E-1
9.920170254E0,-1.120499039E1,-5.204389244E-2,-2.219343036E-1
9.930170254E0,-1.159860992E1,-1.489532143E-1,5.982056609E-4
9.940170254E0,-1.192044449E1,-2.165504545E-1,1.944168359E-1
9.950170254E0,-1.202812099E1,-3.511467278E-1,5.629115105E-1
9.960170254E0,-1.197368431E1,-6.143572330E-1,1.023529887E0
9.970170254E0,-1.191864967E1,-8.536394835E-1,1.389033556E0
9.980170254E0,-1.193121147E1,-8.392825127E-1,1.832902193E0
9.990170254E0,-1.251805210E1,-8.315058947E-1,1.642672777E0
1.000017025E1,-1.329153156E1,-2.111665964E0,1.154536963E0
1.001017025E1,-1.292243862E1,-2.206780672E0,-1.513460279E-1
1.002017025E1,-1.285783291E1,-9.421738982E-1,-2.726023197E0
1.003017025E1,-1.332861996E1,2.829512656E-1,-5.294718266E0
1.004017025E1,-1.340818214E1,1.159322619E0,-6.428916454E0
1.005017025E1,-1.261496067E1,2.047059774E0,-7.156334400E0
1.006017025E1,-1.071506023E1,2.295913219E0,-7.465008259E0
1.007017025E1,-9.424730301E0,2.365903378E0,-6.739983082E0
1.008017025E1,-8.810373306E0,2.180459738E0,-5.668596745E0
1.009017025E1,-8.099106789E0,1.607378602E0,-4.073182583E0
1.010017025E1,-7.392027378E0,4.498506486E-1,-2.406581402E0
1.011017025E1,-6.864409924E0,-6.269195080E-1,-1.067198873E0
1.012017025E1,-7.021139622E0,-1.058225870E0,-4.342973232E-1
1.013017025E1,-7.597810268E0,-1.423131227E0,-3.888336942E-2
1.014017025E1,-8.242675781E0,-1.582852125E0,-2.333002165E-2
1.015017025E1,-8.711668968E0,-1.363908887E0,-1.094716340E-1
1.016017025E1,-9.342177391E0,-8.715856671E-1,-2.991028428E-1
1.017017025E1,-9.550353050E0,-4.606183469E-1,-6.855437160E-1
1.018017025E1,-9.467203140E0,1.818545163E-1,-1.148554921E0
1.019017025E1,-9.442078590E0,7.704889178E-1,-1.434497118E0
1.020017025E1,-9.786644936E0,1.641476393E0,-1.700698733E0
1.021017025E1,-9.985847473E0,2.110469580E0,-2.050050735E0
1.022017025E1,-9.434301376E0,2.130808592E0,-2.261217356E0
1.023017025E1,-9.050851822E0,1.882553220E0,-2.318645239E0
1.024017025E1,-8.758927345E0,1.035493970E0,-2.066800594E0
1.025017025E1,-8.368897438E0,8.374879509E-2,-1.569691658E0
1.026017025E1,-8.093124390E0,-8.165507317E-1,-1.050449133E0
1.027017025E1,-7.940581799E0,-1.634896040E0,-7.423732281E-1
1.028017025E1,-7.888537884E0,-2.223530531E0,-5.276173949E-1
1.029017025E1,-7.935796261E0,-2.750549555E0,-4.522434771E-1
1.030017025E1,-7.949554920E0,-2.933002472E0,-4.989035130E-1
1.031017025E1,-8.050053596E0,-2.961716175E0,-4.468596280E-1
1.032017025E1,-8.304888725E0,-2.675175667E0,-3.696911037E-1
1.033017025E1,-8.512466431E0,-2.187039852E0,-2.691925466E-1
1.034017025E1,-8.767900467E0,-1.818545222E0,-1.208375469E-1
1.035017025E1,-8.998807907E0,-1.335793257E0,-7.836493850E-2
1.036017025E1,-9.052047729E0,-9.954141974E-1,-8.075776696E-2
1.037017025E1,-9.004191399E0,-7.417750359E-1,-1.351944804E-1
1.038017025E1,-8.894122124E0,-6.598208547E-1,-1.585244983E-1
1.039017025E1,-8.612366676E0,-6.783652306E-1,-1.375873089E-1
1.040017025E1,-8.398807526E0,-8.506484628E-1,1.280160099E-1
1.041017025E1,-8.347361565E0,-9.463613629E-1,3.439682424E-1
1.042017025E1,-8.386843681E0,-9.559326172E-1,4.773681164E-1
1.043017025E1,-8.539385796E0,-9.415757060E-1,4.528416991E-1
1.044017025E1,-8.787042618E0,-8.656035662E-1,2.925225794E-1
1.045017025E1,-9.049654961E0,-8.374879360E-1,1.710868180E-1
1.046017025E1,-9.455238342E0,-7.956135273E-1,5.324030295E-2
1.047017025E1,-9.931410789E0,-6.047859192E-1,-2.189432681E-1
1.048017025E1,-1.044048309E1,-3.332005441E-1,-6.831508875E-1
1.049017025E1,-1.087358475E1,-4.187439755E-2,-1.018146038E0
1.050017025E1,-1.137966633E1,1.387837082E-1,-1.204187989E0
1.051017025E1,-1.177208900E1,1.794617064E-2,-1.086939692E0
1.052017025E1,-1.197069359E1,-2.458625287E-1,-7.232306600E-1
1.053017025E1,-1.225244808E1,-3.900300860E-1,-1.316052526E-1
1.054017025E1,-1.252523041E1,-4.241278172E-1,5.455635786E-1
1.055017025E1,-1.257308674E1,-2.374876440E-1,1.131206870E0
1.056017025E1,-1.233380413E1,-5.982056633E-2,1.724028707E0
1.057017025E1,-1.232483101E1,-1.363908947E-1,2.441875458E0
1.058017025E1,-1.239541912E1,5.054838061E-1,1.481157184E0
1.059017025E1,-1.272862053E1,1.275972724E0,3.834498227E-1
1.060017025E1,-1.325444317E1,1.332203984E0,-2.560320199E-1
1.061017025E1,-1.400040531E1,1.115055323E0,-2.720639229E0
1.062017025E1,-1.445145226E1,3.906283081E-1,-5.446662426E0
1.063017025E1,-1.347697544E1,-5.126622319E-1,-6.269793510E0
1.064017025E1,-1.201795197E1,-1.026520967E0,-6.212964058E0
1.065017025E1,-1.050568771E1,-1.381855130E0,-5.659623623E0
1.066017025E1,-9.306285858E0,-1.034297585E0,-5.003990173E0
1.067017025E1,-8.446065903E0,-7.980063558E-1,-4.302295208E0
1.068017025E1,-7.507481098E0,-6.951149702E-1,-3.312264681E0
1.069017025E1,-6.869195461E0,-2.913261652E-1,-2.407179594E0
1.070017025E1,-6.430112839E0,3.176472187E-1,-1.878365755E0
1.071017025E1,-6.330810547E0,8.500502706E-1,-1.246062398E0
1.072017025E1,-6.188437462E0,1.060618639E0,-5.204389095E-1
1.073017025E1,-6.820741177E0,1.543370605E0,7.525427341E-1
1.074017025E1,-7.400402069E0,1.762313843E0,1.401595831E0
1.075017025E1,-7.837092400E0,1.631905079E0,1.705484390E0
1.076017025E1,-8.386244774E0,1.208973646E0,1.704287887E0
1.077017025E1,-8.941978455E0,9.924231768E-1,1.248455167E0
1.078017025E1,-9.337391853E0,6.705885530E-1,4.785645306E-1
1.079017025E1,-9.810572624E0,5.114658475E-1,-7.704889178E-1
1.080017025E1,-1.028913784E1,1.363908947E-1,-1.861017823E0
1.081017025E1,-1.033460140E1,-2.368894368E-1,-2.651845694E0
1.082017025E1,-1.010788059E1,-5.240281820E-1,-2.863012314E0
1.083017025E1,-9.869794846E0,-9.158528447E-1,-2.605185747E0
1.084017025E1,-9.614959717E0,-1.155135155E0,-2.095514536E0
1.085017025E1,-9.337990761E0,-1.025324464E0,-1.482951880E0
1.086017025E1,-9.265607834E0,-1.015154958E0,-9.230313301E-1
1.087017025E1,-9.074779510E0,-6.747759581E-1,-2.793620527E-1
1.088017025E1,-8.614759445E0,-1.328016520E-1,3.529413417E-2
1.089017025E1,-8.359326363E0,3.134597540E-1,2.727817893E-1
1.090017025E1,-8.216953278E0,8.739784956E-1,3.128615618E-1
1.091017025E1,-8.222934723E0,1.353141189E0,2.949153781E-1
1.092017025E1,-8.069195747E0,1.765304923E0,1.112662554E-1
1.093017025E1,-8.056035995E0,2.033899307E0,1.764706671E-1
1.094017025E1,-8.066205025E0,2.143969059E0,2.183450609E-1
1.095017025E1,-8.242675781E0,2.038086653E0,1.561316848E-1
1.096017025E1,-8.432905197E0,1.936989903E0,3.110669367E-2
1.097017025E1,-8.580063820E0,1.773679733E0,-1.136590727E-2
1.098017025E1,-8.602795601E0,1.654038668E0,-1.351944804E-1
1.099017025E1,-8.478368759E0,1.314257860E0,-3.649054468E-2
1.100017025E1,-8.417949677E0,1.022333503E0,2.147558331E-1
1.101017025E1,-8.442476273E0,7.920243144E-1,3.978067636E-1
1.102017025E1,-8.495717049E0,5.335994363E-1,5.282155871E-1
1.103017025E1,-8.605188370E0,2.362912297E-1,5.724828243E-1
1.104017025E1,-8.815158844E0,6.340979785E-2,5.485545993E-1
1.105017025E1,-9.273384094E0,-3.349951655E-2,5.030909777E-1
1.106017025E1,-9.839884758E0,-1.304088384E-1,1.794617027E-1
1.107017025E1,-1.049133110E1,-1.082752272E-1,-3.457628787E-1
1.108017025E1,-1.090828037E1,-7.537391037E-2,-8.410771489E-1
1.109017025E1,-1.132343483E1,-1.435693540E-2,-1.030708313E0
1.110017025E1,-1.188933754E1,-1.196411322E-3,-7.908278704E-1
1.111017025E1,-1.267179012E1,-1.417747438E-1,-3.607180119E-1
1.112017025E1,-1.309531975E1,-2.578266263E-1,3.409772366E-2
1.113017025E1,-1.317069435E1,-5.694918036E-1,6.089733839E-1
1.114017025E1,-1.304626751E1,-1.028913736E0,1.296311617E0
1.115017025E1,-1.293380451E1,-1.239482164E0,1.666600943E0
1.116017025E1,-1.324307728E1,-1.072582722E0,1.462612867E0
1.117017025E1,-1.410927868E1,-2.224128723E0,5.904290080E-1
1.118017025E1,-1.367617798E1,-2.558525562E0,-9.475577474E-1
1.119017025E1,-1.334955788E1,-1.609173179E0,-2.643470764E0
1.120017025E1,-1.365404415E1,-1.728814393E-1,-5.131408215E0
1.121017025E1,-1.357807255E1,1.340578914E0,-6.101697922E0
1.122017025E1,-1.254616737E1,2.607578516E0,-5.745765209E0
1.123017025E1,-1.092682457E1,3.075973511E0,-5.580062389E0
1.124017025E1,-9.226125717E0,3.175873756E0,-5.373083115E0
1.125017025E1,-8.493922234E0,2.971287489E0,-4.726422787E0
1.126017025E1,-8.072785378E0,2.321038008E0,-4.011567116E0
1.127017025E1,-7.533802032E0,1.359721422E0,-2.921038151E0
1.128017025E1,-7.120441914E0,3.068794906E-1,-1.653440475E0
1.129017025E1,-6.674778938E0,-8.033902049E-1,-8.063812256E-1
1.130017025E1,-6.627520561E0,-1.430907965E0,-5.246263742E-1
1.131017025E1,-6.948757172E0,-2.384447813E0,-2.189432681E-1
1.132017025E1,-7.689335346E0,-2.529811859E0,-2.566302419E-1
1.133017025E1,-8.477172852E0,-2.273181438E0,-4.689932466E-1
1.134017025E1,-8.929415703E0,-1.962712765E0,-8.183453679E-1
1.135017025E1,-9.214759827E0,-1.580459356E0,-1.105484009E0
1.136017025E1,-9.479166985E0,-8.147560954E-1,-1.160519004E0
1.137017025E1,-9.724431038E0,1.525424421E-1,-1.259821177E0
1.138017025E1,-1.001216793E1,1.171884894E0,-1.421934843E0
1.139017025E1,-1.008574772E1,1.971685886E0,-1.409372568E0
1.140017025E1,-9.808777809E0,2.087139606E0,-1.417747378E0
1.141017025E1,-9.445069313E0,2.082952023E0,-1.472184181E0
1.142017025E1,-9.201599121E0,1.686341763E0,-1.247856975E0
1.143017025E1,-8.854042053E0,9.397810698E-1,-9.056833982E-1
1.144017025E1,-8.322834969E0,3.326023519E-1,-7.304090858E-1
1.145017025E1,-8.270791054E0,-4.528416991E-1,-4.570291340E-1
1.146017025E1,-8.151748657E0,-1.295713425E0,-1.537388563E-1
1.147017025E1,-7.959126472E0,-1.749751568E0,-2.015953064E-1
1.148017025E1,-7.991429329E0,-2.233700037E0,-2.458625287E-1
1.149017025E1,-8.063214302E0,-2.325225353E0,-1.740778536E-1
1.150017025E1,-8.249256134E0,-2.425724030E0,-2.368894368E-1
1.151017025E1,-8.436494827E0,-2.239681959E0,-1.441675574E-1
1.152017025E1,-8.557332039E0,-2.105684042E0,-5.024927482E-2
1.153017025E1,-8.640482903E0,-1.861616015E0,1.764706671E-1
1.154017025E1,-8.680562019E0,-1.531406522E0,2.841476798E-1
1.155017025E1,-8.657232285E0,-1.315454245E0,3.014956415E-1
1.156017025E1,-8.618947029E0,-1.171884894E0,2.434697002E-1
1.157017025E1,-8.475975990E0,-1.023529887E0,2.482553422E-1
1.158017025E1,-8.280363083E0,-9.750752449E-1,3.451646566E-1
1.159017025E1,-8.157132149E0,-9.505487680E-1,4.935196638E-1
1.160017025E1,-8.057829857E0,-9.553344250E-1,6.137589812E-1
1.161017025E1,-8.073383331E0,-9.936196208E-1,7.381857634E-1
1.162017025E1,-8.254639626E0,-1.013360381E0,6.801598072E-1
1.163017025E1,-8.515457153E0,-1.047458172E0,4.630111754E-1
1.164017025E1,-9.010173798E0,-1.091127157E0,1.351944804E-1
1.165017025E1,-9.547960281E0,-1.006181955E0,-2.279163599E-1
1.166017025E1,-1.012343407E1,-8.590233326E-1,-7.250252366E-1
1.167017025E1,-1.063729286E1,-7.836494446E-1,-1.092323542E0
1.168017025E1,-1.132881927E1,-8.141579032E-1,-1.331007600E0
1.169017025E1,-1.184566879E1,-9.206385016E-1,-1.219143152E0
1.170017025E1,-1.211785221E1,-1.103091240E0,-6.556333899E-1
1.171017025E1,-1.240857983E1,-1.133001566E0,-1.034895778E-1
1.172017025E1,-1.276869965E1,-1.004387259E0,6.293123364E-1
1.173017025E1,-1.284048462E1,-7.363911867E-1,1.223928809E0
1.174017025E1,-1.248036480E1,-4.767699242E-1,1.597209096E0
1.175017025E1,-1.188275719E1,-4.516452849E-1,2.227119684E0
1.176017025E1,-1.238824081E1,-2.703889608E-1,2.007578135E0
1.177017025E1,-1.271127224E1,8.685946465E-1,7.310073376E-1
1.178017025E1,-1.289252853E1,1.078564763E0,3.529413417E-2
1.179017025E1,-1.333340645E1,6.897311211E-1,-1.666002750E0
1.180017025E1,-1.363250923E1,1.908276081E-1,-4.913661480E0
1.181017025E1,-1.312343597E1,-9.032905847E-2,-6.346364021E0
1.182017025E1,-1.178883934E1,-1.926222295E-1,-6.384050846E0
1.183017025E1,-1.014377308E1,-2.416750938E-1,-5.746363640E0
1.184017025E1,-9.105288506E0,1.441675574E-1,-4.700700283E0
1.185017025E1,-8.391031265E0,4.091726840E-1,-3.746562004E0
1.186017025E1,-7.795815945E0,4.438686073E-1,-2.753540754E0
1.187017025E1,-7.332206726E0,5.312066078E-1,-1.556531072E0
1.188017025E1,-7.290332317E0,8.045865893E-1,-8.081758618E-1
1.189017025E1,-7.223333359E0,9.720842242E-1,-2.638086975E-1
1.190017025E1,-7.307082176E0,9.625129104E-1,7.292127013E-1
1.191017025E1,-7.643273830E0,9.182456732E-1,1.549352646E0
1.192017025E1,-8.154141426E0,3.379862010E-1,1.626521230E0
1.193017025E1,-8.534600258E0,-1.848455518E-1,1.450648785E0
1.194017025E1,-9.113064766E0,-3.302095234E-1,8.362914920E-1
1.195017025E1,-9.549157143E0,-6.233302951E-1,-1.920240223E-1
1.196017025E1,-9.832706451E0,-8.057830334E-1,-1.191625714E0
1.197017025E1,-9.927223206E0,-7.968099117E-1,-2.014158487E0
1.198017025E1,-9.942776680E0,-6.143572330E-1,-2.565105915E0
1.199017025E1,-9.821938515E0,-7.148557901E-1,-2.644667149E0
1.200017025E1,-9.480961800E0,-5.419743061E-1,-2.289931297E0
1.201017025E1,-9.109476089E0,-6.125625968E-1,-1.455434322E0
1.202017025E1,-8.909076691E0,-6.071787477E-1,-7.232306600E-1
1.203017025E1,-8.799007416E0,-5.162515044E-1,-1.160518974E-1
1.204017025E1,-8.749954224E0,-1.423729509E-1,2.303091735E-1
1.205017025E1,-8.565707207E0,5.042873621E-1,3.559323549E-1
1.206017025E1,-8.530412674E0,9.834501147E-1,6.155536175E-1
1.207017025E1,-8.321041107E0,1.343569875E0,6.478567123E-1
1.208017025E1,-8.255238533E0,1.721635938E0,6.311069727E-1
1.209017025E1,-8.182256699E0,1.937588096E0,4.677968323E-1
1.210017025E1,-8.267800331E0,2.014158487E0,3.469592929E-1
1.211017025E1,-8.396414757E0,2.075773716E0,2.931207716E-1
1.212017025E1,-8.620741844E0,2.022533417E0,1.824527234E-1
1.213017025E1,-8.676973343E0,1.835893154E0,1.357926875E-1
1.214017025E1,-8.633902550E0,1.692323804E0,1.322034448E-1
1.215017025E1,-8.595617294E0,1.539183140E0,2.003988922E-1
1.216017025E1,-8.462815285E0,1.309472203E0,4.325026870E-1
1.217017025E1,-8.359326363E0,1.046261668E0,7.022934556E-1
1.218017025E1,-8.341380119E0,7.010970116E-1,9.487541914E-1
1.219017025E1,-8.341380119E0,4.283152521E-1,1.022333503E0
1.220017025E1,-8.440083504E0,1.310070455E-1,9.140582681E-1
1.221017025E1,-8.767302513E0,-5.144568533E-2,5.497509837E-1
1.222017025E1,-9.494720459E0,-3.308077157E-1,9.272187948E-2
1.223017025E1,-1.026042366E1,-5.198407173E-1,-3.744767308E-1
1.224017025E1,-1.105005455E1,-7.896314859E-1,-9.230313301E-1
1.225017025E1,-1.151725388E1,-1.001396298E0,-1.000798106E0
1.226017025E1,-1.183430290E1,-1.078564763E0,-8.117650747E-1
1.227017025E1,-1.239242840E1,-1.036690354E0,-3.906283081E-1
1.228017025E1,-1.278844070E1,-9.708877802E-1,1.172483116E-1
1.229017025E1,-1.275972652E1,-1.071386337E0,7.728816867E-1
1.230017025E1,-1.256770229E1,-1.262213945E0,1.387238979E0
1.231017025E1,-1.227099228E1,-1.505683661E0,2.002792597E0
1.232017025E1,-1.194915771E1,-1.605584025E0,2.483749866E0
1.233017025E1,-1.203529930E1,-8.015955687E-1,2.257628202E0
1.234017025E1,-1.279322624E1,-1.516451359E0,1.526022673E0
1.235017025E1,-1.262632656E1,-2.086541414E0,-1.459621787E-1
1.236017025E1,-1.257069397E1,-6.921239495E-1,-2.186441660E0
1.237017025E1,-1.320239925E1,8.386843204E-1,-4.409373760E0
1.238017025E1,-1.352184105E1,2.231905222E0,-6.194419384E0
1.239017025E1,-1.253181076E1,2.813361168E0,-7.027719975E0
1.240017025E1,-1.077428246E1,2.673979282E0,-7.301100254E0
1.241017025E1,-9.905687332E0,2.661417007E0,-7.036693096E0
1.242017025E1,-9.438488960E0,2.442473650E0,-6.157928944E0
1.243017025E1,-8.810971260E0,1.773081541E0,-4.270590305E0
1.244017025E1,-7.987242222E0,7.884350419E-1,-2.246262312E0
1.245017025E1,-7.329813957E0,-9.631111473E-2,-1.050449133E0
1.246017025E1,-7.151548862E0,-9.481559992E-1,-3.068794906E-1
1.247017025E1,-7.143772125E0,-1.561316729E0,4.127619043E-2
1.248017025E1,-7.355536938E0,-1.758126378E0,3.188436031E-1
1.249017025E1,-7.663612843E0,-1.744367719E0,5.982056856E-1
1.250017025E1,-8.124231339E0,-1.170688510E0,5.910272002E-1
1.251017025E1,-8.482556343E0,-5.587241054E-1,3.882354796E-1
1.252017025E1,-8.668598175E0,-3.098705411E-1,2.321037948E-1
1.253017025E1,-9.049057007E0,2.446661144E-1,-2.045863420E-1
1.254017025E1,-9.471988678E0,1.034297585E0,-7.914260626E-1
1.255017025E1,-9.577870369E0,1.436291814E0,-1.444666624E0
1.256017025E1,-9.426525116E0,1.680957913E0,-1.856232166E0
1.257017025E1,-9.291330338E0,1.585245013E0,-1.998006940E0
1.258017025E1,-9.364311218E0,1.019940615E0,-1.674377680E0
1.259017025E1,-9.271589279E0,-9.571290575E-3,-1.642672777E0
1.260017025E1,-9.043673515E0,-2.338984162E-1,-1.386042476E0
1.261017025E1,-8.617751122E0,-5.730810165E-1,-7.357929349E-1
1.262017025E1,-8.514261246E0,-1.377667665E0,-2.273181528E-1
1.263017025E1,-8.577671051E0,-1.621735573E0,3.589233849E-3
1.264017025E1,-8.721838951E0,-1.689332843E0,8.374879509E-2
1.265017025E1,-8.730812073E0,-1.942971945E0,1.286142170E-1
1.266017025E1,-8.664410591E0,-2.014756680E0,1.537388563E-1
1.267017025E1,-8.621339798E0,-2.201396942E0,2.554338276E-1
1.268017025E1,-8.678768158E0,-2.115255117E0,2.404786795E-1
1.269017025E1,-8.707481384E0,-1.808973908E0,1.519442350E-1
1.270017025E1,-8.616554260E0,-1.593021631E0,3.170489892E-2
1.271017025E1,-8.401200294E0,-1.429711580E0,7.776673418E-3
1.272017025E1,-8.172685623E0,-1.281356573E0,1.040877849E-1
1.273017025E1,-7.954340458E0,-1.252044439E0,2.536391914E-1
1.274017025E1,-7.922635555E0,-1.242473125E0,4.971089065E-1
1.275017025E1,-8.020143509E0,-1.127617717E0,7.680960894E-1
1.276017025E1,-8.309076309E0,-1.032503009E0,9.565308690E-1
1.277017025E1,-8.729615211E0,-1.028315544E0,9.391828775E-1
1.278017025E1,-9.153742790E0,-1.043868899E0,7.070791125E-1
1.279017025E1,-9.757332802E0,-1.092921734E0,2.255235314E-1
1.280017025E1,-1.035613632E1,-9.553344250E-1,-2.907279432E-1
1.281017025E1,-1.083051395E1,-6.311069727E-1,-8.458628058E-1
1.282017025E1,-1.121515942E1,-5.264210105E-1,-1.260419369E0
1.283017025E1,-1.158544922E1,-4.983053207E-1,-1.616949916E0
1.284017025E1,-1.180199909E1,-7.196413875E-1,-1.415952802E0
1.285017025E1,-1.190130138E1,-9.254241586E-1,-8.177471161E-1
1.286017025E1,-1.206521034E1,-1.040877819E0,-1.196411322E-3
1.287017025E1,-1.221954727E1,-1.051047325E0,7.812566161E-1
1.288017025E1,-1.223031521E1,-9.170492887E-1,1.502094388E0
1.289017025E1,-1.208195972E1,-7.489534616E-1,2.118246317E0
1.290017025E1,-1.254078388E1,-6.490531564E-1,2.644667149E0
1.291017025E1,-1.282792187E1,5.186443329E-1,1.731207132E0
1.292017025E1,-1.280997562E1,1.222732425E0,4.408775866E-1
1.293017025E1,-1.302054405E1,1.327418327E0,-8.177471161E-1
1.294017025E1,-1.357209015E1,1.034297585E0,-3.648456335E0
1.295017025E1,-1.345484161E1,5.413761139E-1,-5.727221012E0
1.296017025E1,-1.260359478E1,1.549352705E-1,-6.272784710E0
1.297017025E1,-1.110987568E1,-3.056831062E-1,-6.335596085E0
1.298017025E1,-9.757332802E0,-2.117647976E-1,-5.600999832E0
1.299017025E1,-8.753543854E0,2.644068897E-1,-4.469194412E0
1.300017025E1,-8.168498039E0,3.667000830E-1,-3.415156126E0
1.301017025E1,-7.493124008E0,5.497509837E-1,-2.384447813E0
1.302017025E1,-7.126423836E0,6.945167780E-1,-1.575075507E0
1.303017025E1,-6.969694138E0,9.343972206E-1,-9.068797827E-1
1.304017025E1,-6.902695179E0,9.631111026E-1,-2.805584669E-1
1.305017025E1,-7.134200573E0,9.768698215E-1,6.209374666E-1
1.306017025E1,-7.688737392E0,7.603194118E-1,1.239482164E0
1.307017025E1,-8.225327492E0,3.373879790E-1,1.482353687E0
1.308017025E1,-8.548358917E0,5.922235921E-2,1.296311617E0
1.309017025E1,-8.903095245E0,-6.640082598E-2,8.404789567E-1
1.310017025E1,-9.317651749E0,-1.872383654E-1,3.589234129E-2
1.311017025E1,-9.602396965E0,-4.079762697E-1,-8.153542876E-1
1.312017025E1,-9.671191216E0,-5.228317380E-1,-1.770688772E0
1.313017025E1,-9.649057388E0,-4.127618968E-1,-2.182254314E0
1.314017025E1,-9.510273933E0,-4.175475538E-1,-2.204986095E0
1.315017025E1,-9.271589279E0,-5.653043389E-1,-2.130808592E0
1.316017025E1,-9.067003250E0,-6.604190469E-1,-1.980060697E0
1.317017025E1,-8.968298912E0,-6.939185858E-1,-1.702493310E0
1.318017025E1,-8.866603851E0,-4.396811724E-1,-1.344766378E0
1.319017025E1,-8.840283394E0,-1.286142170E-1,-1.088734269E0
1.320017025E1,-8.863613129E0,3.888336718E-1,-7.345965505E-1
1.321017025E1,-8.852247238E0,9.062815905E-1,-4.564309120E-1
1.322017025E1,-8.720642090E0,1.356730461E0,-3.343969584E-1
1.323017025E1,-8.608778000E0,1.797608018E0,-5.024927482E-2
1.324017025E1,-8.423932076E0,1.773679733E0,2.093719840E-1
1.325017025E1,-8.391629219E0,1.677966833E0,3.918247223E-1
1.326017025E1,-8.425128937E0,1.663609982E0,3.678964674E-1
1.327017025E1,-8.504690170E0,1.496112347E0,2.201396823E-1
1.328017025E1,-8.511868477E0,1.174875975E0,-1.615155302E-2
1.329017025E1,-8.525029182E0,8.781659007E-1,-1.244267747E-1
1.330017025E1,-8.509475708E0,6.436693072E-1,-1.651047617E-1
1.331017025E1,-8.452646255E0,4.091726840E-1,-4.366901144E-2
1.332017025E1,-8.429914474E0,1.884347796E-1,1.441675574E-1
1.333017025E1,-8.420941353E0,6.580262445E-3,2.602194548E-1
1.334017025E1,-8.535796165E0,-2.380858511E-1,3.906283081E-1
1.335017025E1,-8.688339233E0,-4.295116663E-1,3.523431420E-1
1.336017025E1,-8.940781593E0,-6.364908218E-1,2.757728100E-1
1.337017025E1,-9.312267303E0,-7.280163169E-1,1.160518974E-1
1.338017025E1,-9.825528145E0,-8.153542876E-1,-3.122633696E-1
1.339017025E1,-1.041535854E1,-7.399803996E-1,-7.082754970E-1
1.340017025E1,-1.112363434E1,-5.934200287E-1,-7.339983582E-1
1.341017025E1,-1.167398357E1,-5.324030519E-1,-6.281159520E-1
1.342017025E1,-1.243191051E1,-5.581258535E-1,-3.176472187E-1
1.343017025E1,-1.308574867E1,-5.210371017E-1,8.853443712E-2
1.344017025E1,-1.335793209E1,-6.131607890E-1,6.843472719E-1
1.345017025E1,-1.341416359E1,-8.237292171E-1,1.258624673E0
1.346017025E1,-1.332383442E1,-9.768698215E-1,1.996810555E0
1.347017025E1,-1.351765347E1,-7.764709592E-1,2.256431818E0
1.348017025E1,-1.429173183E1,-1.917847395E0,1.848455548E0
1.349017025E1,-1.384427357E1,-2.663809776E0,4.761717021E-1
1.350017025E1,-1.294158173E1,-1.244267821E0,-1.668395638E0
1.351017025E1,-1.302293682E1,-2.333002165E-2,-3.937987804E0
1.352017025E1,-1.297208977E1,6.334998012E-1,-5.132006168E0
1.353017025E1,-1.225902843E1,1.362712502E0,-6.002395630E0
1.354017025E1,-1.074796104E1,1.730608940E0,-6.701697826E0
1.355017025E1,-9.389435768E0,1.862812400E0,-6.774080753E0
1.356017025E1,-8.628518105E0,1.888535261E0,-6.253043652E0
1.357017025E1,-7.666005611E0,1.800000787E0,-5.108676434E0
1.358017025E1,-6.729215622E0,1.442872047E0,-3.684946775E0
1.359017025E1,-6.101099491E0,8.835497499E-1,-2.539382935E0
1.360017025E1,-5.940182209E0,2.039881349E-1,-1.453639746E0
1.361017025E1,-6.216553211E0,-6.059823632E-1,-7.854440212E-1
1.362017025E1,-6.859025955E0,-1.134197950E0,-3.469592929E-1
1.363017025E1,-7.479365349E0,-1.130608678E0,8.374879509E-2
1.364017025E1,-8.139784813E0,-1.003190875E0,6.801598072E-1
1.365017025E1,-8.907880783E0,-7.220342159E-1,9.978070259E-1
1.366017025E1,-9.532406807E0,-3.547359705E-1,6.705885530E-1
1.367017025E1,-9.777072906E0,-1.076770201E-2,5.024927482E-2
1.368017025E1,-1.010130119E1,5.587241054E-1,-8.638089895E-1
1.369017025E1,-1.026461124E1,1.190429211E0,-1.562513232E0
1.370017025E1,-1.039143085E1,1.645065546E0,-2.054238319E0
1.371017025E1,-1.017488003E1,1.995015860E0,-2.298904419E0
1.372017025E1,-9.651450157E0,1.866999865E0,-2.566302299E0
1.373017025E1,-9.403194427E0,1.177866936E0,-2.306680918E0
1.374017025E1,-9.137591362E0,6.705885530E-1,-1.842473388E0
1.375017025E1,-8.758329391E0,-6.101697683E-2,-1.198804140E0
1.376017025E1,-8.373682976E0,-9.607182741E-1,-6.257231236E-1
1.377017025E1,-8.140980721E0,-1.702493310E0,-2.033899277E-1
1.378017025E1,-8.073982239E0,-2.114058733E0,-8.015955985E-2
1.379017025E1,-8.182855606E0,-2.425724030E0,-1.411765367E-1
1.380017025E1,-8.325826645E0,-2.727817774E0,-1.208375469E-1
1.381017025E1,-8.355138779E0,-2.632104874E0,-7.357929647E-2
1.382017025E1,-8.361120224E0,-2.450250387E0,2.033899166E-2
1.383017025E1,-8.520841599E0,-2.038684845E0,1.453639716E-1
1.384017025E1,-8.608179092E0,-1.636690736E0,2.087737769E-1
1.385017025E1,-8.675178528E0,-1.478764415E0,2.069791555E-1
1.386017025E1,-8.565707207E0,-1.291526079E0,1.776670814E-1
1.387017025E1,-8.359924316E0,-1.238285661E0,1.980060786E-1
1.388017025E1,-8.122436523E0,-1.271785259E0,3.625126183E-1
1.389017025E1,-7.970492363E0,-1.165902853E0,5.252245665E-1
1.390017025E1,-7.991429329E0,-9.553344250E-1,6.765705943E-1
1.391017025E1,-8.183453560E0,-8.117650747E-1,7.172485590E-1
1.392017025E1,-8.454441071E0,-7.788637877E-1,4.905286431E-1
1.393017025E1,-8.758329391E0,-7.124629617E-1,1.818545163E-1
1.394017025E1,-9.305686951E0,-6.418746710E-1,-1.280160099E-1
1.395017025E1,-9.834501266E0,-4.899304509E-1,-4.528416991E-1
1.396017025E1,-1.035852909E1,-3.427718580E-1,-7.782655358E-1
1.397017025E1,-1.105424213E1,-1.956132501E-1,-1.137188911E0
1.398017025E1,-1.153041458E1,-3.451646566E-1,-1.321436286E0
1.399017025E1,-1.186720371E1,-6.717849374E-1,-1.024726272E0
1.400017025E1,-1.211366463E1,-8.542376757E-1,-6.478567123E-1
1.401017025E1,-1.242413330E1,-8.739784956E-1,-2.871387079E-2
1.402017025E1,-1.262572861E1,-6.975077987E-1,6.472585201E-1
1.403017025E1,-1.252702427E1,-3.858426511E-1,1.381256819E0
1.404017025E1,-1.258864021E1,-2.327020019E-1,1.910070658E0
1.405017025E1,-1.315992641E1,3.020938635E-1,1.396211982E0
1.406017025E1,-1.336870003E1,1.690529227E0,2.087737769E-1
1.407017025E1,-1.363490200E1,1.791027784E0,-6.442674994E-1
1.408017025E1,-1.445683575E1,1.118644595E0,-3.669393539E0
1.409017025E1,-1.455015659E1,3.086741269E-1,-6.903891563E0
1.410017025E1,-1.325085354E1,-5.120640397E-1,-7.734799385E0
1.411017025E1,-1.164586735E1,-8.626125455E-1,-7.362715244E0
1.412017025E1,-1.006361389E1,-8.685946465E-1,-6.028118610E0
1.413017025E1,-9.069993973E0,-5.264210105E-1,-4.786243439E0
1.414017025E1,-8.337192535E0,-3.858426511E-1,-3.659224033E0
1.415017025E1,-7.664809227E0,-3.218346536E-1,-2.809173822E0
1.416017025E1,-7.192824841E0,-2.536391914E-1,-2.022533417E0
1.417017025E1,-7.044469833E0,7.716853172E-2,-1.536790371E0
1.418017025E1,-6.736992359E0,9.212367237E-2,-1.100100160E0
1.419017025E1,-7.264011383E0,4.450650215E-1,2.273181528E-1
1.420017025E1,-7.773084164E0,1.950150430E-1,1.190429211E0
1.421017025E1,-8.185248375E0,-2.321037948E-1,1.429711580E0
1.422017025E1,-8.504690170E0,-3.379862010E-1,1.323230863E0
1.423017025E1,-8.892327309E0,-2.961117923E-1,7.609176040E-1
1.424017025E1,-9.230911255E0,-2.153540403E-1,-7.357929647E-2
1.425017025E1,-9.342776299E0,-4.121637046E-1,-9.756734371E-1
1.426017025E1,-9.252447128E0,-3.780659735E-1,-1.558325768E0
1.427017025E1,-9.269794464E0,-3.780659735E-1,-1.826321840E0
1.428017025E1,-9.072386742E0,-3.541377485E-1,-1.953739643E0
1.429017025E1,-8.996415138E0,-5.694918036E-1,-1.813161373E0
1.430017025E1,-9.037093163E0,-6.699903607E-1,-1.516451359E0
1.431017025E1,-9.034700394E0,-7.274180651E-1,-1.200598717E0
1.432017025E1,-8.955737114E0,-3.726821244E-1,-9.732806087E-1
1.433017025E1,-8.939585686E0,4.366901144E-2,-6.658028960E-1
1.434017025E1,-8.837890625E0,6.041877270E-1,-3.918247223E-1
1.435017025E1,-8.663812637E0,1.160519004E0,-1.555334777E-1
1.436017025E1,-8.465806961E0,1.539183140E0,6.759724021E-2
1.437017025E1,-8.424530029E0,1.826920033E0,2.327020019E-1
1.438017025E1,-8.482556343E0,1.821536183E0,3.708875179E-1
1.439017025E1,-8.543573380E0,1.606182218E0,2.099701911E-1
1.440017025E1,-8.603992462E0,1.481157184E0,1.914258115E-2
1.441017025E1,-8.679964066E0,1.328016520E0,2.931207791E-2
1.442017025E1,-8.684151649E0,1.040279627E0,-6.580262445E-3
1.443017025E1,-8.573483467E0,8.685946465E-1,0.000000000E0
1.444017025E1,-8.429315567E0,5.766702294E-1,-2.093719877E-2
1.445017025E1,-8.362915039E0,3.661018610E-1,1.052841991E-1
1.446017025E1,-8.301898003E0,2.033899277E-1,3.074777126E-1
1.447017025E1,-8.259425163E0,6.460621208E-2,4.235295951E-1
1.448017025E1,-8.322237015E0,-1.268195957E-1,5.246263742E-1
1.449017025E1,-8.456234932E0,-2.327020019E-1,5.916253924E-1
1.450017025E1,-8.856434822E0,-3.966103494E-1,4.797609448E-1
1.451017025E1,-9.509077072E0,-6.041877270E-1,1.519442350E-1
1.452017025E1,-1.021376324E1,-6.532405615E-1,-1.776670814E-1
1.453017025E1,-1.112363434E1,-5.407779217E-1,-6.813562512E-1
1.454017025E1,-1.176251793E1,-5.994020700E-1,-9.481559992E-1
1.455017025E1,-1.218903828E1,-8.159525394E-1,-7.776673436E-1
1.456017025E1,-1.268495083E1,-1.128814101E0,-2.769692242E-1
1.457017025E1,-1.293739414E1,-1.229910851E0,2.709871531E-1
1.458017025E1,-1.297029495E1,-1.402194023E0,8.410771489E-1
1.459017025E1,-1.283868980E1,-1.598405480E0,1.249651670E0
1.460017025E1,-1.257488155E1,-1.851446509E0,1.797608018E0
1.461017025E1,-1.228475189E1,-1.472782373E0,1.964507341E0
1.462017025E1,-1.295354557E1,-1.698904037E0,1.249053478E0
1.463017025E1,-1.319103336E1,-2.470589399E0,2.991028316E-2
1.464017025E1,-1.280818176E1,-1.679761529E0,-2.151745796E0
1.465017025E1,-1.315992641E1,2.883351147E-1,-4.858626366E0
1.466017025E1,-1.329512119E1,1.858624935E0,-6.963712215E0
1.467017025E1,-1.240798187E1,2.420938253E0,-7.501499176E0
1.468017025E1,-1.043629551E1,2.310868502E0,-7.630711555E0
1.469017025E1,-8.986844063E0,2.313859463E0,-7.047461033E0
1.470017025E1,-8.457431793E0,2.511865616E0,-6.251847267E0
1.471017025E1,-8.054839134E0,2.067398787E0,-4.401597023E0
1.472017025E1,-7.504489899E0,1.211366415E0,-2.322234392E0
1.473017025E1,-6.977470875E0,3.882354796E-1,-9.415757060E-1
1.474017025E1,-7.005586624E0,-1.525424421E-1,-2.638086975E-1
1.475017025E1,-7.500900745E0,-5.515456200E-1,1.800599098E-1
1.476017025E1,-8.289336205E0,-6.490531564E-1,1.896311939E-1
1.477017025E1,-8.943773270E0,-6.077769399E-1,3.170489892E-2
1.478017025E1,-9.315258980E0,-3.164508045E-1,-2.213360965E-1
1.479017025E1,-9.456435204E0,-1.441675574E-1,-6.011967063E-1
1.480017025E1,-9.465408325E0,3.014956415E-1,-7.764709592E-1
1.481017025E1,-9.450452805E0,8.901300430E-1,-1.019342422E0
1.482017025E1,-9.802796364E0,2.072782516E0,-1.570289850E0
1.483017025E1,-9.681360245E0,2.451446772E0,-1.939980984E0
1.484017025E1,-9.167501450E0,1.743769526E0,-2.041675806E0
1.485017025E1,-8.937192917E0,1.183848977E0,-1.954337835E0
1.486017025E1,-8.690134048E0,6.047859192E-1,-1.590030670E0
1.487017025E1,-8.315656662E0,4.067798331E-2,-9.720842242E-1
1.488017025E1,-7.739584923E0,-8.584251404E-1,-3.786641955E-1
1.489017025E1,-7.340581894E0,-1.365105271E0,1.441675574E-1
1.490017025E1,-7.280162811E0,-1.820339799E0,4.869394004E-1
1.491017025E1,-7.580461979E0,-2.127219439E0,3.912265003E-1
1.492017025E1,-7.888537884E0,-2.477767944E0,1.627119333E-1
1.493017025E1,-8.374280930E0,-2.737389088E0,-6.819544733E-2
1.494017025E1,-8.577671051E0,-2.752344131E0,-3.038884699E-1
1.495017025E1,-8.703892708E0,-2.503490686E0,-1.824527234E-1
1.496017025E1,-8.892925262E0,-2.072782516E0,4.247260094E-2
1.497017025E1,-9.049057007E0,-1.560718536E0,3.248256743E-1
1.498017025E1,-9.112466812E0,-1.168295622E0,3.499503136E-1
1.499017025E1,-9.035896301E0,-1.005583763E0,3.254238665E-1
1.500017025E1,-8.758329391E0,-1.004387259E0,3.272185028E-1
1.501017025E1,-8.300702095E0,-1.195214868E0,5.132604837E-1
1.502017025E1,-8.011170387E0,-1.338186026E0,8.656035662E-1
1.503017025E1,-7.941180229E0,-1.362114310E0,1.095314622E0
1.504017025E1,-7.999206066E0,-1.314257860E0,1.180858016E0
1.505017025E1,-8.260024071E0,-1.219143152E0,8.386843204E-1
1.506017025E1,-8.663812637E0,-1.061815023E0,4.576273263E-1
1.507017025E1,-9.107083321E0,-1.063011408E0,2.967100143E-1
1.508017025E1,-9.857831001E0,-8.775677085E-1,1.992024779E-1
1.509017025E1,-1.088195896E1,-5.401797295E-1,-4.073780477E-1
1.510017025E1,-1.166441250E1,-5.228317380E-1,-1.287338614E0
1.511017025E1,-1.205444241E1,-5.330012441E-1,-1.562513232E0
1.512017025E1,-1.237807178E1,-7.495517135E-1,-1.080359459E0
1.513017025E1,-1.267657661E1,-7.549355626E-1,-2.321037948E-1
1.514017025E1,-1.292602825E1,-6.789634228E-1,5.395814776E-1
1.515017025E1,-1.288953781E1,-4.971089065E-1,1.331605792E0
1.516017025E1,-1.262991619E1,-4.127619043E-2,2.257628202E0
1.517017025E1,-1.279083347E1,1.262213886E-1,2.594418049E0
1.518017025E1,-1.309711456E1,8.051848412E-1,1.197009563E0
1.519017025E1,-1.294935799E1,2.012962103E0,-3.062812984E-1
1.520017025E1,-1.309591866E1,2.088934183E0,-1.206580877E0
1.521017025E1,-1.391605854E1,1.024128079E0,-4.357928276E0
1.522017025E1,-1.353799248E1,-8.135596663E-2,-6.574280262E0
1.523017025E1,-1.206939697E1,-6.101697683E-1,-7.085746288E0
1.524017025E1,-1.066959572E1,-5.682953596E-1,-6.316453457E0
1.525017025E1,-9.824331284E0,-2.835494876E-1,-5.648257732E0
1.526017025E1,-9.368498802E0,-6.699903309E-2,-4.614558697E0
1.527017025E1,-9.098708153E0,5.802594870E-2,-3.065804005E0
1.528017025E1,-8.876773834E0,-1.429711580E-1,-1.992024899E0
1.529017025E1,-8.666803360E0,-5.144568533E-2,-1.327418327E0
1.530017025E1,-8.471788406E0,4.486542568E-2,-5.527420044E-1
1.531017025E1,-8.386843681E0,-4.606183618E-2,2.225325108E-1
1.532017025E1,-8.149355888E0,-5.096712112E-1,5.958128572E-1
1.533017025E1,-8.258229256E0,-6.442674994E-1,1.054636598E0
1.534017025E1,-8.276175499E0,-1.027717352E0,1.023529887E0
1.535017025E1,-8.166105270E0,-1.003190875E0,4.031906128E-1
1.536017025E1,-7.879564762E0,-9.643075466E-1,-2.303091735E-1
1.537017025E1,-7.691130161E0,-8.679963946E-1,-5.024927258E-1
1.538017025E1,-7.599006653E0,-8.249256015E-1,-6.741777658E-1
1.539017025E1,-7.478168964E0,-9.876375198E-1,-7.962117195E-1
1.540017025E1,-7.559525013E0,-9.924231768E-1,-7.585247755E-1
1.541017025E1,-8.143971443E0,-1.012762189E0,-5.904290080E-1
1.542017025E1,-8.392825127E0,-7.692924738E-1,-6.939185858E-1
1.543017025E1,-8.692526817E0,-8.703892231E-1,-8.679963946E-1
1.544017025E1,-9.035896301E0,-5.120640397E-1,-1.073180914E0
1.545017025E1,-9.481559753E0,3.290131316E-2,-1.118644595E0
1.546017025E1,-9.535398483E0,5.982056856E-1,-1.137188911E0
1.547017025E1,-9.290133476E0,1.039083242E0,-7.902296782E-1
1.548017025E1,-9.092127800E0,1.413560033E0,-4.713860750E-1
1.549017025E1,-8.866603851E0,1.624726534E0,-6.520441920E-2
1.550017025E1,-8.755337715E0,1.850250125E0,3.403790295E-1
1.551017025E1,-8.775676727E0,1.974676847E0,4.683950245E-1
1.552017025E1,-8.651249886E0,1.859821439E0,4.983053207E-1
1.553017025E1,-8.431708336E0,1.644467354E0,6.544370055E-1
1.554017025E1,-8.338388443E0,1.549352646E0,9.284151793E-1
1.555017025E1,-8.262416840E0,1.405783296E0,1.087537885E0
1.556017025E1,-8.225327492E0,1.137188911E0,1.280758262E0
1.557017025E1,-8.249256134E0,1.031904817E0,1.338784218E0
1.558017025E1,-8.167302132E0,9.409775138E-1,1.277767301E0
1.559017025E1,-8.094919205E0,8.261220455E-1,1.241276741E0
1.560017025E1,-8.079963684E0,5.676971674E-1,1.161715388E0
1.561017025E1,-8.407182693E0,2.793620527E-1,9.134600163E-1
1.562017025E1,-9.182456970E0,6.699903309E-2,4.552344978E-1
1.563017025E1,-1.010548782E1,-1.932204217E-1,-1.178465188E-1
1.564017025E1,-1.156271744E1,-5.174478889E-1,-8.470591903E-1
1.565017025E1,-1.289611721E1,-6.837490797E-1,-1.557727575E0
1.566017025E1,-1.374078369E1,-8.338986635E-1,-1.738983870E0
1.567017025E1,-1.438385487E1,-9.553344250E-1,-1.408176184E0
1.568017025E1,-1.423849106E1,-1.137188911E0,-9.523434043E-1
1.569017025E1,-1.362832165E1,-1.226321578E0,-8.733802289E-2
1.570017025E1,-1.298943806E1,-1.186840057E0,8.009973764E-1
1.571017025E1,-1.212921810E1,-7.058826685E-1,2.036292076E0
1.572017025E1,-1.174576855E1,-1.196411322E-3,2.363510609E0
1.573017025E1,-1.217169094E1,-1.453041553E0,2.179861546E0
1.574017025E1,-1.179601765E1,-1.653440475E0,1.195214868E0
1.575017025E1,-1.138684464E1,-3.882354796E-1,-1.381855130E0
1.576017025E1,-1.188814068E1,5.449653864E-1,-4.216153622E0
1.577017025E1,-1.184148121E1,9.182456732E-1,-6.058028698E0
1.578017025E1,-1.090409279E1,1.193420291E0,-6.827919483E0
1.579017025E1,-9.461220741E0,9.816554785E-1,-6.572485447E0
1.580017025E1,-8.385646820E0,1.027119160E0,-5.848656654E0
1.581017025E1,-8.023134232E0,9.846464992E-1,-5.076373100E0
1.582017025E1,-7.847859859E0,2.811566591E-1,-3.421736479E0
1.583017025E1,-7.607979774E0,-3.696911037E-1,-2.101496458E0
1.584017025E1,-7.943572998E0,-8.781659007E-1,-1.187438250E0
1.585017025E1,-8.481958389E0,-1.200000525E0,-7.495517135E-1
1.586017025E1,-9.229117393E0,-1.201795220E0,-6.065805554E-1
1.587017025E1,-9.879964828E0,-1.007378340E0,-5.886343718E-1
1.588017025E1,-1.022991467E1,-6.771687865E-1,-6.263213158E-1
1.589017025E1,-1.031067276E1,-6.460621208E-2,-8.129615188E-1
1.590017025E1,-1.032024384E1,7.974081635E-1,-1.077368379E0
1.591017025E1,-1.041835022E1,1.606780410E0,-1.021735311E0
1.592017025E1,-1.060080242E1,2.204986095E0,-1.094118118E0
1.593017025E1,-1.039083195E1,2.377867460E0,-1.648056626E0
1.594017025E1,-9.745966911E0,2.245065928E0,-2.206780672E0
1.595017025E1,-8.979664803E0,1.595414519E0,-2.110469580E0
1.596017025E1,-8.581858635E0,7.920243144E-1,-2.001596212E0
1.597017025E1,-8.157731056E0,2.632104978E-2,-1.625324726E0
1.598017025E1,-7.709674358E0,-4.707878530E-1,-1.298704505E0
1.599017025E1,-7.252645493E0,-1.269392371E0,-8.069794178E-1
1.600017025E1,-7.058228493E0,-1.920240164E0,-4.091726840E-1
1.601017025E1,-6.988238335E0,-2.327618122E0,-2.333002165E-2
1.602017025E1,-6.984649181E0,-2.657827854E0,1.842473447E-1
1.603017025E1,-7.167101860E0,-2.720639229E0,3.367897868E-1
1.604017025E1,-7.440482140E0,-2.764308453E0,4.067798555E-1
1.605017025E1,-7.746165276E0,-2.592623234E0,3.409772217E-1
1.606017025E1,-8.271987915E0,-2.258226395E0,2.392822653E-1
1.607017025E1,-8.615956306E0,-1.933400750E0,1.106680483E-1
1.608017025E1,-8.931808472E0,-1.522433400E0,9.571290575E-3
1.609017025E1,-9.047262192E0,-1.302293777E0,4.546362907E-2
1.610017025E1,-8.847461700E0,-1.229910851E0,1.040877849E-1
1.611017025E1,-8.585447311E0,-1.210170031E0,2.536391914E-1
1.612017025E1,-8.429315567E0,-1.238285661E0,5.222335458E-1
1.613017025E1,-8.425726891E0,-1.209571838E0,6.418746710E-1
1.614017025E1,-8.545368195E0,-1.205384374E0,6.454638839E-1
1.615017025E1,-8.773882866E0,-1.196411371E0,5.102694035E-1
1.616017025E1,-9.153742790E0,-1.220937729E0,1.734796464E-1
1.617017025E1,-9.715457916E0,-1.222134113E0,-2.129612118E-1
1.618017025E1,-1.026700401E1,-1.113260746E0,-6.568298340E-1
1.619017025E1,-1.106201935E1,-7.896314859E-1,-1.228714466E0
1.620017025E1,-1.163749313E1,-4.989035130E-1,-1.664806366E0
1.621017025E1,-1.204068375E1,-5.569294691E-1,-1.519442320E0
1.622017025E1,-1.218305683E1,-6.915257573E-1,-9.984052777E-1
1.623017025E1,-1.231406307E1,-8.021938205E-1,-9.511470050E-2
1.624017025E1,-1.243490124E1,-8.548358679E-1,7.591229677E-1
1.625017025E1,-1.232901859E1,-7.734799385E-1,1.294517040E0
1.626017025E1,-1.200359440E1,-5.521438122E-1,1.830509305E0
1.627017025E1,-1.196112251E1,-5.569294691E-1,2.495115757E0
1.628017025E1,-1.254018497E1,-2.213360928E-2,1.808375716E0
1.629017025E1,-1.277767277E1,1.246660590E0,5.653043389E-1
1.630017025E1,-1.308275795E1,1.787438512E0,-3.583251834E-1
1.631017025E1,-1.390409374E1,1.454836130E0,-2.865405083E0
1.632017025E1,-1.389272785E1,5.976074338E-1,-6.629314899E0
1.633017025E1,-1.303549957E1,-7.058826834E-2,-7.880163193E0
1.634017025E1,-1.115174961E1,-6.173482537E-1,-7.667201996E0
1.635017025E1,-9.406784058E0,-5.509474277E-1,-6.332006931E0
1.636017025E1,-8.520243645E0,-1.274178028E-1,-4.828117847E0
1.637017025E1,-8.022536278E0,2.231307179E-1,-3.752544165E0
1.638017025E1,-7.490731239E0,3.439682424E-1,-2.598007202E0
1.639017025E1,-7.395616531E0,4.450650215E-1,-1.966900229E0
1.640017025E1,-7.485347271E0,5.886343718E-1,-1.548156261E0
1.641017025E1,-7.456633568E0,5.934200287E-1,-8.841479421E-1
1.642017025E1,-7.833503246E0,5.443671346E-1,2.512463629E-1
1.643017025E1,-8.383852005E0,1.746760458E-1,1.014556766E0
1.644017025E1,-8.584251404E0,-2.620140910E-1,1.121037364E0
1.645017025E1,-8.878568649E0,-5.688936114E-1,8.919246197E-1
1.646017025E1,-9.141778946E0,-5.503492355E-1,2.973082066E-1
1.647017025E1,-9.116056442E0,-6.556333899E-1,-5.186443329E-1
1.648017025E1,-9.029914856E0,-9.667003751E-1,-1.108475089E0
1.649017025E1,-8.943174362E0,-1.191625714E0,-1.746162295E0
1.650017025E1,-8.984451294E0,-1.460219979E0,-1.926222205E0
1.651017025E1,-8.870193481E0,-1.493121386E0,-1.805982947E0
1.652017025E1,-8.943773270E0,-1.536790371E0,-1.548156261E0
1.653017025E1,-8.874381065E0,-1.675574064E0,-1.259821177E0
1.654017025E1,-9.005986214E0,-1.273579836E0,-9.960124493E-1
1.655017025E1,-8.932407379E0,-4.827519655E-1,-8.721838593E-1
1.656017025E1,-8.845068932E0,1.543370634E-1,-5.318048596E-1
1.657017025E1,-8.805587769E0,7.004988194E-1,-2.584248483E-1
1.658017025E1,-8.672785759E0,1.107876897E0,-2.225325108E-1
1.659017025E1,-8.496315002E0,1.347757339E0,-2.039881349E-1
1.660017025E1,-8.412566185E0,1.654038668E0,-1.914258115E-2
1.661017025E1,-8.471788406E0,1.768894196E0,2.183450609E-1
1.662017025E1,-8.583054543E0,1.816750646E0,3.224328458E-1
1.663017025E1,-8.697312355E0,1.931606054E0,2.733799815E-1
1.664017025E1,-8.691927910E0,1.854437590E0,2.117647976E-1
1.665017025E1,-8.638090134E0,1.576870084E0,1.088734269E-1
1.666017025E1,-8.556135178E0,1.337587833E0,1.112662554E-1
1.667017025E1,-8.542376518E0,1.227517962E0,1.555334777E-1
1.668017025E1,-8.528019905E0,1.002592683E0,2.428714931E-1
1.669017025E1,-8.518448830E0,6.430711150E-1,3.888336718E-1
1.670017025E1,-8.523234367E0,4.325026870E-1,4.049852192E-1
1.671017025E1,-8.642276764E0,2.027917206E-1,3.768695593E-1
1.672017025E1,-9.004191399E0,-1.854437590E-2,2.901297510E-1
1.673017025E1,-9.695118904E0,-1.639083475E-1,2.333002165E-2
1.674017025E1,-1.047218800E1,-2.518445849E-1,-2.775674164E-1
1.675017025E1,-1.143410301E1,-2.925225794E-1,-8.141579032E-1
1.676017025E1,-1.215374470E1,-3.230310678E-1,-1.186840057E0
1.677017025E1,-1.255095291E1,-4.911268353E-1,-1.068993568E0
1.678017025E1,-1.289791203E1,-6.885347366E-1,-6.448656917E-1
1.679017025E1,-1.299661636E1,-6.885347366E-1,-2.344966233E-1
1.680017025E1,-1.281476212E1,-7.986045480E-1,3.547359705E-1
1.681017025E1,-1.253061390E1,-9.415757060E-1,8.117650747E-1
1.682017025E1,-1.207717419E1,-1.002592683E0,1.565504193E0
1.683017025E1,-1.165843010E1,-6.711867452E-1,2.316252232E0
1.684017025E1,-1.177328587E1,-3.170489967E-1,2.298904419E0
1.685017025E1,-1.230748367E1,-1.563709617E0,1.797608018E0
1.686017025E1,-1.198983574E1,-2.132603168E0,4.133601189E-1
1.687017025E1,-1.179781246E1,-1.064207911E0,-1.853241086E0
1.688017025E1,-1.259701443E1,-8.913264424E-2,-3.896711588E0
1.689017025E1,-1.282792187E1,1.146162033E0,-5.976074696E0
1.690017025E1,-1.167637634E1,1.723430514E0,-6.660421848E0
1.691017025E1,-9.704092026E0,1.589432478E0,-6.832107067E0
1.692017025E1,-8.611768723E0,1.539183140E0,-6.470192432E0
1.693017025E1,-8.102695465E0,1.449452281E0,-5.443671703E0
1.694017025E1,-7.880163193E0,7.405785918E-1,-3.702294827E0
1.695017025E1,-7.603792191E0,-1.639083475E-1,-2.073979139E0
1.696017025E1,-7.542177200E0,-7.286145091E-1,-1.219143152E0
1.697017025E1,-7.908876896E0,-1.280160069E0,-6.490531564E-1
1.698017025E1,-8.488538742E0,-1.473380566E0,-4.606183469E-1
1.699017025E1,-8.976674080E0,-1.383649707E0,-4.313062727E-1
1.700017025E1,-9.436096191E0,-1.197607756E0,-4.354937077E-1
1.701017025E1,-9.621540070E0,-6.664010882E-1,-7.082754970E-1
1.702017025E1,-9.655039787E0,9.511470050E-2,-9.242277741E-1
1.703017025E1,-9.800403595E0,8.368897438E-1,-9.164510965E-1
1.704017025E1,-1.006421185E1,1.478166223E0,-1.018146038E0
1.705017025E1,-1.032144070E1,2.263011932E0,-1.317248821E0
1.706017025E1,-9.832108498E0,2.469991207E0,-1.601994753E0
1.707017025E1,-9.180662155E0,2.467000246E0,-1.716850281E0
1.708017025E1,-8.546564102E0,1.965105653E0,-1.379462242E0
1.709017025E1,-7.911269665E0,1.018744230E0,-9.475577474E-1
1.710017025E1,-7.586444378E0,-5.982056726E-3,-6.418746710E-1
1.711017025E1,-7.500900745E0,-9.104689956E-1,-3.337987661E-1
1.712017025E1,-7.555337429E0,-2.012363911E0,-3.834498227E-1
1.713017025E1,-7.356733322E0,-2.251646042E0,-6.460621208E-2
1.714017025E1,-7.368099213E0,-2.438286304E0,2.374876440E-1
1.715017025E1,-7.531409264E0,-2.534597397E0,3.756731451E-1
1.716017025E1,-7.731808186E0,-2.788834810E0,3.667000830E-1
1.717017025E1,-7.959724426E0,-2.760719061E0,1.782652885E-1
1.718017025E1,-8.213363647E0,-2.497508526E0,8.374879509E-2
1.719017025E1,-8.578269005E0,-1.976471543E0,1.351944804E-1
1.720017025E1,-8.809176445E0,-1.502692580E0,2.111666054E-1
1.721017025E1,-8.804988861E0,-1.225125194E0,2.285145670E-1
1.722017025E1,-8.700901031E0,-1.133599758E0,3.140579760E-1
1.723017025E1,-8.424530029E0,-1.128215909E0,4.211367965E-1
1.724017025E1,-8.071588516E0,-1.161117196E0,5.814558864E-1
1.725017025E1,-7.891529083E0,-1.198804140E0,7.794619799E-1
1.726017025E1,-7.883154392E0,-1.323829174E0,1.014556766E0
1.727017025E1,-8.079365730E0,-1.290329576E0,9.936196208E-1
1.728017025E1,-8.468797684E0,-1.195813060E0,6.604190469E-1
1.729017025E1,-9.046066284E0,-1.106082320E0,4.456632137E-1
1.730017025E1,-9.985248566E0,-1.031306505E0,6.101697683E-2
1.731017025E1,-1.102911758E1,-7.513462901E-1,-4.833501875E-1
1.732017025E1,-1.192941761E1,-4.085744619E-1,-1.070189953E0
1.733017025E1,-1.244327641E1,-4.145565331E-1,-1.374676585E0
1.734017025E1,-1.278245831E1,-7.549355626E-1,-1.345962763E0
1.735017025E1,-1.284766293E1,-1.195813060E0,-8.081758618E-1
1.736017025E1,-1.281954765E1,-1.392622828E0,-1.184447184E-1
1.737017025E1,-1.270170116E1,-1.530808330E0,8.434699774E-1
1.738017025E1,-1.240798187E1,-1.415354609E0,1.786242127E0
1.739017025E1,-1.208016491E1,-1.232901812E0,2.661417007E0
1.740017025E1,-1.250189972E1,-1.013360381E0,2.676372051E0
1.741017025E1,-1.272263813E1,4.486542568E-2,1.233500123E0
1.742017025E1,-1.282253838E1,8.727820516E-1,2.901297510E-1
1.743017025E1,-1.353141212E1,9.481559992E-1,-1.497308731E0
1.744017025E1,-1.396810246E1,7.028916478E-1,-4.370490551E0
1.745017025E1,-1.355414391E1,3.110669553E-1,-6.452844620E0
1.746017025E1,-1.204008579E1,-1.555334684E-2,-6.702894211E0
1.747017025E1,-1.077607632E1,-1.615155339E-1,-6.244070530E0
1.748017025E1,-9.798010826E0,6.580262631E-2,-5.407180786E0
1.749017025E1,-9.016754150E0,1.393819153E-1,-4.413561344E0
1.750017025E1,-8.410771370E0,4.091726840E-1,-3.039483070E0
1.751017025E1,-8.044670105E0,4.725824594E-1,-2.139183521E0
1.752017025E1,-7.773084164E0,5.635097623E-1,-1.383051515E0
1.753017025E1,-7.534998417E0,5.545366406E-1,-6.215356588E-1
1.754017025E1,-7.527820110E0,5.066801906E-1,2.967100143E-1
1.755017025E1,-7.850851059E0,6.879364848E-1,1.191027522E0
1.756017025E1,-8.029116631E0,3.284149170E-1,1.465005636E0
1.757017025E1,-8.195417404E0,-1.651047617E-1,1.496112347E0
1.758017025E1,-8.498707771E0,-3.912265003E-1,1.218544960E0
1.759017025E1,-8.557332039E0,-4.295116663E-1,7.214360237E-1
1.760017025E1,-8.513064384E0,-3.672982752E-1,-9.571290761E-2
1.761017025E1,-8.522636414E0,-5.635097623E-1,-6.729813814E-1
1.762017025E1,-8.577073097E0,-6.592226624E-1,-9.637092948E-1
1.763017025E1,-8.550153732E0,-7.310073376E-1,-1.364507079E0
1.764017025E1,-8.803792953E0,-8.512466550E-1,-1.351346612E0
1.765017025E1,-8.955737114E0,-8.949156404E-1,-1.438086390E0
1.766017025E1,-9.075976372E0,-9.002995491E-1,-1.390828133E0
1.767017025E1,-9.239884377E0,-6.658028960E-1,-1.278963685E0
1.768017025E1,-9.305088997E0,-1.004985496E-1,-1.006181955E0
1.769017025E1,-9.190233231E0,5.078766346E-1,-5.611169338E-1
1.770017025E1,-9.011369705E0,6.664010882E-1,-2.452643216E-1
1.771017025E1,-8.755936623E0,7.004988194E-1,1.525424421E-1
1.772017025E1,-8.618947029E0,8.057830334E-1,3.583251834E-1
1.773017025E1,-8.510073662E0,8.446664214E-1,4.731806815E-1
1.774017025E1,-8.464012146E0,1.026520967E0,6.059823632E-1
1.775017025E1,-8.556135178E0,1.107876897E0,7.674978375E-1
1.776017025E1,-8.623134613E0,1.237089276E0,7.328019142E-1
1.777017025E1,-8.560322762E0,1.251446247E0,6.849454641E-1
1.778017025E1,-8.517251968E0,1.299900889E0,6.514459848E-1
1.779017025E1,-8.565108299E0,1.390828133E0,6.508477330E-1
1.780017025E1,-8.560322762E0,1.313659668E0,6.418746710E-1
1.781017025E1,-8.565108299E0,1.251446247E0,6.753742099E-1
1.782017025E1,-8.511270523E0,1.093519926E0,5.575276613E-1
1.783017025E1,-8.477172852E0,7.824530005E-1,5.599204898E-1
1.784017025E1,-8.572287560E0,5.808576941E-1,5.754738450E-1
1.785017025E1,-8.958129883E0,3.744767308E-1,4.259224236E-1
1.786017025E1,-9.686744690E0,1.573280841E-1,9.272187948E-2
1.787017025E1,-1.066301632E1,-5.084748194E-2,-4.522434771E-1
1.788017025E1,-1.152981567E1,-1.010967568E-1,-8.931210637E-1
1.789017025E1,-1.247438240E1,-1.172483116E-1,-1.200598717E0
1.790017025E1,-1.315454292E1,-3.391826153E-1,-9.505487680E-1
1.791017025E1,-1.329272842E1,-4.833501875E-1,-3.912265003E-1
1.792017025E1,-1.309173107E1,-5.306084156E-1,2.554338276E-1
1.793017025E1,-1.259163094E1,-7.166503668E-1,1.197009563E0
1.794017025E1,-1.209631634E1,-1.040877819E0,2.210968018E0
1.795017025E1,-1.142213917E1,-1.001396298E0,2.827120066E0
1.796017025E1,-1.141137123E1,-8.333004713E-1,2.601596355E0
1.797017025E1,-1.186840057E1,-1.922034740E0,2.027917147E0
1.798017025E1,-1.144487095E1,-1.839482427E0,3.577269912E-1
1.799017025E1,-1.109372425E1,-8.518448472E-1,-2.041077614E0
1.800017025E1,-1.175833035E1,3.008974493E-1,-4.892126083E0
1.801017025E1,-1.221177006E1,1.209571838E0,-7.137789726E0
1.802017025E1,-1.163210869E1,1.570289850E0,-8.015955925E0
1.803017025E1,-1.047278690E1,1.433898926E0,-7.572087288E0
1.804017025E1,-9.385847092E0,1.637887120E0,-6.595815659E0
1.805017025E1,-9.072985649E0,1.207179070E0,-4.865804672E0
1.806017025E1,-8.643473625E0,4.085744619E-1,-3.222533941E0
1.807017025E1,-8.437690735E0,-3.044866920E-1,-2.408375978E0
1.808017025E1,-8.537590981E0,-9.326026440E-1,-1.697707653E0
1.809017025E1,-8.818747520E0,-1.373480201E0,-1.070189953E0
1.810017025E1,-9.031708717E0,-1.546361685E0,-7.405785918E-1
1.811017025E1,-9.255437851E0,-1.231107235E0,-3.242274821E-1
1.812017025E1,-9.302098274E0,-5.318048596E-1,-5.682953820E-2
1.813017025E1,-9.032307625E0,1.728814393E-1,1.214357466E-1
1.814017025E1,-8.957531929E0,9.008977413E-1,1.357926875E-1
1.815017025E1,-9.120243073E0,1.762912035E0,-4.366901144E-2
1.816017025E1,-9.275178909E0,2.327618122E0,-5.934200287E-1
1.817017025E1,-9.300303459E0,2.648256540E0,-1.155135155E0
1.818017025E1,-8.903095245E0,2.275574446E0,-1.722832322E0
1.819017025E1,-8.358727455E0,1.429113269E0,-2.028515339E0
1.820017025E1,-8.158329010E0,8.404789567E-1,-1.750947952E0
1.821017025E1,-7.822735310E0,2.524427772E-1,-1.696511269E0
1.822017025E1,-7.624729156E0,-6.239284873E-1,-1.698305845E0
1.823017025E1,-7.610970497E0,-1.433300734E0,-1.410568953E0
1.824017025E1,-7.511668682E0,-2.098505497E0,-1.074975610E0
1.825017025E1,-7.441678524E0,-2.514856577E0,-7.513462901E-1
1.826017025E1,-7.563114166E0,-2.721237659E0,-4.307080805E-1
1.827017025E1,-7.884948730E0,-2.760120869E0,-2.416750938E-1
1.828017025E1,-8.114660263E0,-2.851646423E0,-1.710868180E-1
1.829017025E1,-8.388637543E0,-2.627319336E0,-4.546362907E-2
1.830017025E1,-8.764310837E0,-2.168495417E0,1.304088384E-1
1.831017025E1,-9.062815666E0,-1.709671736E0,2.536391914E-1
1.832017025E1,-9.259027481E0,-1.403390527E0,2.548356056E-1
1.833017025E1,-9.269196510E0,-1.154536963E0,2.003988922E-1
1.834017025E1,-8.991629601E0,-9.714859724E-1,1.633101404E-1
1.835017025E1,-8.697910309E0,-9.086744189E-1,4.851447940E-1
1.836017025E1,-8.651848793E0,-8.368897438E-1,7.429714203E-1
1.837017025E1,-8.787641525E0,-7.603194118E-1,9.517452121E-1
1.838017025E1,-9.072985649E0,-7.130611539E-1,7.244270444E-1
1.839017025E1,-9.397212982E0,-7.525427341E-1,-3.589233849E-3
1.840017025E1,-9.695118904E0,-8.967102766E-1,-4.157529473E-1
1.841017025E1,-1.008455086E1,-9.738788009E-1,-7.812566161E-1
1.842017025E1,-1.060618591E1,-9.463613629E-1,-1.372882009E0
1.843017025E1,-1.127139091E1,-9.672985673E-1,-1.888535261E0
1.844017025E1,-1.176431274E1,-1.064207911E0,-1.828714728E0
1.845017025E1,-1.215733337E1,-1.319043517E0,-1.031904817E0
1.846017025E1,-1.243789196E1,-1.357926846E0,1.734796353E-2
1.847017025E1,-1.260180092E1,-1.258026481E0,8.039883971E-1
1.848017025E1,-1.273878956E1,-8.273184299E-1,1.688734531E0
1.849017025E1,-1.338305664E1,-4.073780477E-1,2.063809633E0
1.850017025E1,-1.386102295E1,1.258624673E0,8.967102766E-1
1.851017025E1,-1.356850052E1,2.121237278E0,-2.452643216E-2
1.852017025E1,-1.350628757E1,1.905883193E0,-1.241276741E0
1.853017025E1,-1.403330708E1,1.277169108E0,-4.131208420E0
1.854017025E1,-1.384367561E1,6.837490797E-1,-6.218348026E0
1.855017025E1,-1.276391411E1,1.932204217E-1,-6.546762943E0
1.856017025E1,-1.105304623E1,-2.099701911E-1,-6.345765591E0
1.857017025E1,-9.882955551E0,-5.982056726E-3,-5.498108387E0
1.858017025E1,-9.211171150E0,2.009970993E-1,-4.606183529E0
1.859017025E1,-8.474779129E0,2.745763958E-1,-3.387638569E0
1.860017025E1,-7.898109436E0,6.999006122E-2,-2.474178553E0
1.861017025E1,-7.787441254E0,1.280160099E-1,-1.943570137E0
1.862017025E1,-7.777271748E0,3.002992272E-1,-1.390828133E0
1.863017025E1,-7.447660446E0,-1.974078640E-2,-6.502495408E-1
1.864017025E1,-7.799405575E0,-1.214357466E-1,3.565305769E-1
1.865017025E1,-8.094321251E0,-4.570291340E-1,8.344969153E-1
1.866017025E1,-8.218149185E0,-7.256234884E-1,8.452646136E-1
1.867017025E1,-8.306683540E0,-8.548358679E-1,6.257231236E-1
1.868017025E1,-8.418548584E0,-6.927221417E-1,1.794617027E-1
1.869017025E1,-8.404789925E0,-6.352944374E-1,-3.798605800E-1
1.870017025E1,-8.203792572E0,-6.681957245E-1,-1.033101201E0
1.871017025E1,-8.152346611E0,-6.538388133E-1,-1.476969719E0
1.872017025E1,-8.352147102E0,-8.458628058E-1,-1.625324726E0
1.873017025E1,-8.443074226E0,-8.793623447E-1,-1.587637782E0
1.874017025E1,-8.625527382E0,-7.842476368E-1,-1.493719578E0
1.875017025E1,-8.847461700E0,-5.210371017E-1,-1.329811215E0
1.876017025E1,-8.830113411E0,-1.232303679E-1,-1.189232826E0
1.877017025E1,-8.836693764E0,2.213360965E-1,-1.063011408E0
1.878017025E1,-8.930013657E0,4.941178858E-1,-8.506484628E-1
1.879017025E1,-8.985049248E0,8.817551732E-1,-5.766702294E-1
1.880017025E1,-8.886344910E0,1.025922656E0,-4.049852192E-1
1.881017025E1,-8.791828156E0,1.121635556E0,-3.284149170E-1
1.882017025E1,-8.667402267E0,1.371087432E0,-3.966103494E-1
1.883017025E1,-8.703293800E0,1.533799291E0,-1.256231815E-1
1.884017025E1,-8.742177963E0,1.552941918E0,-1.136590727E-2
1.885017025E1,-8.827720642E0,1.462014675E0,-8.733802289E-2
1.886017025E1,-8.927620888E0,1.236491084E0,-8.195417374E-2
1.887017025E1,-8.960522652E0,1.001994491E0,-6.580262631E-2
1.888017025E1,-8.941379547E0,9.493523836E-1,-1.082752272E-1
1.889017025E1,-8.793025017E0,9.254241586E-1,-7.357929647E-2
1.890017025E1,-8.642875671E0,8.446664214E-1,3.002992272E-1
1.891017025E1,-8.433503151E0,6.436693072E-1,5.377869010E-1
1.892017025E1,-8.348558426E0,5.000999570E-1,6.777670383E-1
1.893017025E1,-8.314460754E0,4.283152521E-1,6.161518097E-1
1.894017025E1,-8.551948547E0,3.750749528E-1,4.528416991E-1
1.895017025E1,-8.980263710E0,3.020938635E-1,1.537388563E-1
1.896017025E1,-9.774082184E0,3.535395563E-1,-4.827519655E-1
1.897017025E1,-1.049671459E1,5.862415433E-1,-1.058225870E0
1.898017025E1,-1.109372425E1,5.850451589E-1,-1.224527001E0
1.899017025E1,-1.159262753E1,4.498506486E-1,-9.451649189E-1
1.900017025E1,-1.222253799E1,6.520441920E-2,-3.589234054E-1
1.901017025E1,-1.257607746E1,-1.226321608E-1,2.464607358E-1
1.902017025E1,-1.260897923E1,-4.725824594E-1,8.943174481E-1
1.903017025E1,-1.233918858E1,-9.792626500E-1,1.372882009E0
1.904017025E1,-1.209571838E1,-1.414756417E0,2.223530531E0
1.905017025E1,-1.219143105E1,-1.204187989E0,2.192423820E0
1.906017025E1,-1.295414352E1,-2.278565407E0,1.535593987E0
1.907017025E1,-1.315872955E1,-3.179463148E0,-2.416750938E-1
1.908017025E1,-1.292423344E1,-2.044068813E0,-2.513062000E0
1.909017025E1,-1.361695576E1,-4.552344978E-1,-4.913661480E0
1.910017025E1,-1.362592888E1,5.982056856E-1,-5.930012703E0
1.911017025E1,-1.239183044E1,1.861017823E0,-6.274579048E0
1.912017025E1,-1.050269699E1,2.315055847E0,-6.403193474E0
1.913017025E1,-8.928219795E0,2.362314224E0,-5.962316036E0
1.914017025E1,-8.374280930E0,2.056631088E0,-5.129613400E0
1.915017025E1,-8.044071198E0,1.314856052E0,-3.750749588E0
1.916017025E1,-7.813762188E0,2.811566591E-1,-2.260020971E0
1.917017025E1,-7.437490940E0,-3.936193287E-1,-1.272981644E0
1.918017025E1,-7.478767395E0,-7.956135273E-1,-7.304090858E-1
1.919017025E1,-8.007580757E0,-9.409775138E-1,-3.559323549E-1
1.920017025E1,-8.639286041E0,-8.416753411E-1,-3.224328458E-1
1.921017025E1,-9.098110199E0,-6.939185858E-1,-3.559323549E-1
1.922017025E1,-9.628120422E0,-2.883351147E-1,-5.772684813E-1
1.923017025E1,-1.005224800E1,2.709871531E-1,-9.236295223E-1
1.924017025E1,-1.017488003E1,9.607182741E-1,-1.416550994E0
1.925017025E1,-9.968499184E0,1.425524116E0,-1.585843205E0
1.926017025E1,-9.739984512E0,2.072782516E0,-1.631905079E0
1.927017025E1,-9.827322960E0,2.963510752E0,-1.753939033E0
1.928017025E1,-9.631709099E0,3.059821844E0,-1.710269928E0
1.929017025E1,-9.282357216E0,2.169692039E0,-1.481157184E0
1.930017025E1,-8.696115494E0,1.136590719E0,-1.536790371E0
1.931017025E1,-8.001599312E0,-2.458625287E-1,-1.326221943E0
1.932017025E1,-7.668996811E0,-8.057830334E-1,-9.182456732E-1
1.933017025E1,-7.345367432E0,-1.470987678E0,-4.576273263E-1
1.934017025E1,-7.264609337E0,-2.145763636E0,-2.033899277E-1
1.935017025E1,-7.322635651E0,-2.811566591E0,1.136590727E-2
1.936017025E1,-7.407580853E0,-3.080160856E0,-2.093719877E-2
1.937017025E1,-7.578667641E0,-3.195614576E0,-1.357926875E-1
1.938017025E1,-7.871190071E0,-3.047857761E0,-1.106680483E-1
1.939017025E1,-8.197810173E0,-2.674577475E0,1.375873014E-2
1.940017025E1,-8.385646820E0,-2.239681959E0,9.511470050E-2
1.941017025E1,-8.602795601E0,-1.684547186E0,1.806581169E-1
1.942017025E1,-8.781061172E0,-1.153340459E0,2.183450609E-1
1.943017025E1,-8.757730484E0,-9.565308690E-1,2.315055877E-1
1.944017025E1,-8.635098457E0,-7.890332937E-1,3.649054468E-1
1.945017025E1,-8.421539307E0,-7.692924738E-1,5.814558864E-1
1.946017025E1,-8.227720261E0,-7.686942816E-1,8.500502706E-1
1.947017025E1,-8.157132149E0,-7.830511928E-1,1.037288666E0
1.948017025E1,-8.267202377E0,-7.974081635E-1,1.084546804E0
1.949017025E1,-8.542975426E0,-7.645068169E-1,8.291130662E-1
1.950017025E1,-9.013762474E0,-8.374879360E-1,5.012963414E-1
1.951017025E1,-9.581459999E0,-9.158528447E-1,3.116651475E-1
1.952017025E1,-1.042552853E1,-9.511470199E-1,5.264209956E-2
1.953017025E1,-1.124806118E1,-9.098708034E-1,-5.886343718E-1
1.954017025E1,-1.189890862E1,-8.632107973E-1,-1.171884894E0
1.955017025E1,-1.221356487E1,-1.065404296E0,-1.282552958E0
1.956017025E1,-1.251685524E1,-1.247856975E0,-9.008977413E-1
1.957017025E1,-1.264666557E1,-1.133599758E0,-2.291127741E-1
1.958017025E1,-1.267597771E1,-1.028315544E0,4.630111754E-1
1.959017025E1,-1.257906818E1,-7.836494446E-1,1.465005636E0
1.960017025E1,-1.271127224E1,-5.443671346E-1,2.379662037E0
1.961017025E1,-1.340578842E1,3.637090325E-1,1.685145378E0
1.962017025E1,-1.347697544E1,1.499103427E0,6.209374666E-1
1.963017025E1,-1.369232941E1,1.804786444E0,-1.854437590E-2
1.964017025E1,-1.430848122E1,1.722234130E0,-2.617149830E0
1.965017025E1,-1.426541042E1,8.506484628E-1,-5.548955917E0
1.966017025E1,-1.340040493E1,3.828516230E-2,-6.459424496E0
1.967017025E1,-1.171585751E1,-7.477570772E-1,-6.413362980E0
1.968017025E1,-1.035314560E1,-7.064808607E-1,-5.758925915E0
1.969017025E1,-9.473184586E0,-5.126622319E-1,-5.204987526E0
1.970017025E1,-8.587242126E0,-4.438686073E-1,-4.104887009E0
1.971017025E1,-7.818548203E0,-1.310070455E-1,-2.806781054E0
1.972017025E1,-7.370491982E0,1.531406492E-1,-2.031506538E0
1.973017025E1,-7.140780926E0,4.504488707E-1,-1.554736495E0
1.974017025E1,-6.912864685E0,4.701896608E-1,-7.022934556E-1
1.975017025E1,-7.098906517E0,5.557330847E-1,4.707878530E-1
1.976017025E1,-7.392027378E0,4.546363056E-1,1.320239902E0
1.977017025E1,-7.587640762E0,7.118647546E-2,1.402792215E0
1.978017025E1,-7.896913052E0,-2.410768867E-1,1.293320656E0
1.979017025E1,-8.309675217E0,-3.810569942E-1,8.518448472E-1
1.980017025E1,-8.548358917E0,-1.752742529E-1,1.172483116E-1
1.981017025E1,-8.920442581E0,-1.046859920E-1,-6.119644046E-1
1.982017025E1,-9.163313866E0,-2.057827413E-1,-1.406381488E0
1.983017025E1,-9.316454887E0,-4.983053207E-1,-1.945364833E0
1.984017025E1,-9.467203140E0,-5.270192027E-1,-2.189432621E0
1.985017025E1,-9.562317848E0,-6.137589812E-1,-2.213361025E0
1.986017025E1,-9.515657425E0,-7.094719410E-1,-2.054836512E0
1.987017025E1,-9.596415520E0,-7.573283911E-1,-1.529611826E0
1.988017025E1,-9.537791252E0,-5.802595019E-1,-1.042672515E0
1.989017025E1,-9.323633194E0,-1.483550072E-1,-4.474578202E-1
1.990017025E1,-8.989834785E0,3.553341627E-1,1.728814393E-1
1.991017025E1,-8.787042618E0,8.057830334E-1,4.576273263E-1
1.992017025E1,-8.445467949E0,1.175474167E0,6.628118753E-1
1.993017025E1,-8.164310455E0,1.276570916E0,7.501499057E-1
1.994017025E1,-8.122436523E0,1.487139225E0,8.440681696E-1
1.995017025E1,-8.228319168E0,1.759921074E0,8.464609981E-1
1.996017025E1,-8.370692253E0,1.807777524E0,7.064808607E-1
1.997017025E1,-8.450851440E0,1.778465390E0,5.533402562E-1
1.998017025E1,-8.521439552E0,1.658824325E0,4.390829504E-1
1.999017025E1,-8.587242126E0,1.591825247E0,3.385843933E-1
2.000017025E1,-8.611170769E0,1.423729420E0,3.684946895E-1
2.001017025E1,-8.550153732E0,1.194018483E0,5.904290080E-1
2.002017025E1,-8.493922234E0,9.978070259E-1,7.782655358E-1
2.003017025E1,-8.465208054E0,8.829515576E-1,8.608179688E-1
2.004017025E1,-8.474779129E0,6.436693072E-1,9.002995491E-1
2.005017025E1,-8.640482903E0,3.320041299E-1,7.914260626E-1
2.006017025E1,-9.007781029E0,6.759724021E-2,6.957131624E-1
2.007017025E1,-9.710672379E0,-1.447657645E-1,1.328016520E-1
2.008017025E1,-1.048953629E1,-1.561316848E-1,-5.318048596E-1
2.009017025E1,-1.118465137E1,-1.818545163E-1,-9.804590940E-1
2.010017025E1,-1.178704453E1,-2.596212626E-1,-9.367900491E-1
2.011017025E1,-1.274058437E1,-5.060819983E-1,-6.305087805E-1
2.012017025E1,-1.336152172E1,-5.509474277E-1,-1.088734269E-1
2.013017025E1,-1.325803185E1,-5.216353536E-1,7.369893789E-1
2.014017025E1,-1.286261845E1,-5.976074338E-1,1.552941918E0
2.015017025E1,-1.233320618E1,-8.835497499E-1,2.452044964E0
2.016017025E1,-1.192523003E1,-5.808576941E-1,2.858824968E0
2.017017025E1,-1.235175037E1,-5.102694035E-1,2.291725874E0
2.018017025E1,-1.263111210E1,-1.971685886E0,1.115055323E0
2.019017025E1,-1.220818138E1,-1.496112347E0,-5.772684813E-1
2.020017025E1,-1.281356525E1,-1.423729509E-1,-3.065804005E0
2.021017025E1,-1.338604832E1,8.524430394E-1,-4.797609329E0
2.022017025E1,-1.300080395E1,1.749153376E0,-6.058028698E0
2.023017025E1,-1.135035419E1,1.920838356E0,-6.759724140E0
2.024017025E1,-9.675378799E0,1.780858278E0,-6.914061069E0
2.025017025E1,-9.043074608E0,1.542772412E0,-6.349354744E0
