"Time (s)","Gyroscope x (rad/s)","Gyroscope y (rad/s)","Gyroscope z (rad/s)"
3.862392900E-2,-7.788531948E-3,-6.169738993E-2,1.832595794E-3
4.862392900E-2,4.276056774E-3,-1.065959856E-1,1.832595794E-3
5.862392900E-2,2.611448988E-2,-1.273654103E-1,-7.788531948E-3
6.862392900E-2,4.199698567E-2,-1.395827085E-1,-1.618792862E-2
7.862392900E-2,6.490442902E-2,-1.627955884E-1,-1.603521220E-2
8.862392900E-2,4.948008433E-2,-7.055493444E-2,-1.863138936E-2
9.862392900E-2,1.817324013E-2,1.221730490E-3,-1.404990070E-2
1.086239290E-1,0.000000000E0,4.367686436E-2,-1.298088674E-2
1.186239290E-1,-1.221730490E-3,4.138612002E-2,-8.093964309E-3
1.286239290E-1,1.664607786E-2,-3.878994286E-2,6.108652451E-4
1.386239290E-1,1.542434748E-2,-4.841107130E-2,-4.276056774E-3
1.486239290E-1,1.435533352E-2,-2.061670274E-2,-3.054326167E-3
1.586239290E-1,1.679879427E-2,-1.450804994E-2,5.497787148E-3
1.686239290E-1,1.069014193E-3,1.710422710E-2,7.788531948E-3
1.786239290E-1,-1.099557430E-2,5.238169432E-2,6.566801574E-3
1.886239290E-1,-2.565634064E-2,3.665191308E-2,6.414085161E-3
1.986239290E-1,-1.863138936E-2,-3.359758854E-2,1.389718428E-2
2.086239290E-1,-6.566801574E-3,-6.398813426E-2,1.267545391E-2
2.186239290E-1,3.054326167E-3,-9.315694869E-2,1.160643995E-2
2.286239290E-1,5.497787148E-3,-9.437867999E-2,9.162978269E-3
2.386239290E-1,6.872233935E-3,-3.985895589E-2,5.497787148E-3
2.486239290E-1,5.955935922E-3,1.343903504E-2,1.832595794E-3
2.586239290E-1,1.328631863E-2,2.672535367E-2,1.389718428E-2
2.686239290E-1,1.191187184E-2,-1.572977938E-2,1.404990070E-2
2.786239290E-1,-2.748893574E-3,-1.679879427E-2,1.267545391E-2
2.886239290E-1,-1.527163084E-3,-3.512475174E-3,1.145372353E-2
2.986239290E-1,-5.039638374E-3,1.710422710E-2,1.023199316E-2
3.086239290E-1,-1.328631863E-2,7.651086897E-2,1.527163084E-3
3.186239290E-1,-1.069014147E-2,1.165225431E-1,1.130100712E-2
3.286239290E-1,2.290744567E-3,1.221730467E-2,1.389718428E-2
3.386239290E-1,-1.389718428E-2,-6.765332818E-2,5.345070735E-3
3.486239290E-1,-5.497787148E-3,-9.193521738E-2,1.038470957E-2
3.586239290E-1,-1.832595794E-3,-9.071348608E-2,5.497787148E-3
3.686239290E-1,-6.414085161E-3,-5.436700583E-2,1.832595794E-3
3.786239290E-1,-1.221730467E-2,2.687807009E-2,-8.093964309E-3
3.886239290E-1,-2.260201424E-2,1.250746548E-1,-2.046398632E-2
3.986239290E-1,-2.489275858E-2,1.869247705E-1,-2.061670274E-2
4.086239290E-1,-3.191770986E-2,2.318233550E-1,-2.672535367E-2
4.186239290E-1,-2.351831272E-2,2.414444834E-1,-1.939497143E-2
4.286239290E-1,-2.138028294E-2,1.759291887E-1,-1.084285788E-2
4.386239290E-1,-2.275473066E-2,1.348485053E-1,-8.246680722E-3
4.486239290E-1,-2.382374369E-2,1.371392459E-1,-1.191187184E-2
4.586239290E-1,-2.855795063E-2,1.808161139E-1,-1.817324013E-2
4.686239290E-1,-3.665191308E-2,2.608394623E-1,-2.794708498E-2
4.786239290E-1,-4.474587739E-2,3.408628106E-1,-4.031710699E-2
4.886239290E-1,-5.879577994E-2,4.706716835E-1,-6.123924255E-2
4.986239290E-1,-7.376197726E-2,6.368269920E-1,-8.353582025E-2
5.086239290E-1,-8.750644326E-2,8.307767510E-1,-1.081231460E-1
5.186239290E-1,-1.101084575E-1,9.471465349E-1,-1.169806942E-1
5.286239290E-1,-1.627955884E-1,1.106276989E0,-1.394299865E-1
5.386239290E-1,-2.212859392E-1,1.361160517E0,-1.740965992E-1
5.486239290E-1,-2.674062550E-1,1.618334770E0,-2.099849284E-1
5.586239290E-1,-3.119994104E-1,1.960266590E0,-2.606867552E-1
5.686239290E-1,-3.552181423E-1,2.350762129E0,-3.138320148E-1
5.786239290E-1,-3.750712574E-1,2.734996319E0,-3.862195611E-1
5.886239290E-1,-3.724750876E-1,3.018437862E0,-4.364632070E-1
5.986239290E-1,-4.221078753E-1,3.335018873E0,-4.761694670E-1
6.086239290E-1,-4.757113159E-1,3.604410410E0,-4.792237878E-1
6.186239290E-1,-5.268712640E-1,3.659388304E0,-4.430300295E-1
6.286239290E-1,-5.135849714E-1,3.704286814E0,-3.845396638E-1
6.386239290E-1,-4.360050559E-1,3.496592760E0,-2.997821271E-1
6.486239290E-1,-3.831652105E-1,3.078150034E0,-2.477058619E-1
6.586239290E-1,-3.373503387E-1,2.682767391E0,-2.422080636E-1
6.686239290E-1,-2.567161322E-1,2.135737658E0,-2.325869352E-1
6.786239290E-1,-1.970040351E-1,1.581530094E0,-2.266310006E-1
6.886239290E-1,-1.499674171E-1,1.191034555E0,-1.905899495E-1
6.986239290E-1,-1.000291854E-1,9.640980959E-1,-1.608102769E-1
7.086239290E-1,-6.078109145E-2,7.322747111E-1,-1.518000066E-1
7.186239290E-1,-5.574145541E-2,5.650503635E-1,-1.052215397E-1
7.286239290E-1,-5.482515693E-2,4.778493345E-1,-1.015563458E-1
7.386239290E-1,-4.413501546E-2,4.341724813E-1,-1.026253626E-1
7.486239290E-1,-3.604105115E-2,3.711006343E-1,-6.597344577E-2
7.586239290E-1,-3.909537569E-2,2.669481039E-1,-3.298672289E-2
7.686239290E-1,-3.329215571E-2,1.918116808E-1,-2.550362423E-2
7.786239290E-1,-3.344487399E-2,1.809688359E-1,-1.084285788E-2
7.886239290E-1,-1.908953860E-2,1.371392459E-1,-3.359758761E-3
7.986239290E-1,-2.290744567E-3,7.895433158E-2,-4.428773187E-3
8.086239290E-1,1.114829071E-2,5.696318299E-2,-1.282817032E-2
8.186239290E-1,1.847867295E-2,7.757988572E-2,-1.771509275E-2
8.286239290E-1,1.389718428E-2,1.151480973E-1,-3.359758854E-2
8.386239290E-1,-1.374446787E-2,1.989893466E-1,-3.756821156E-2
8.486239290E-1,-1.710422710E-2,2.643519342E-1,-5.100724846E-2
8.586239290E-1,-1.802052557E-2,3.274237812E-1,-6.459899992E-2
8.686239290E-1,-1.293507218E-1,1.487456858E-1,-5.283984542E-2
8.786239290E-1,-8.827003092E-2,1.157589629E-1,-2.443460934E-2
8.886239290E-1,-5.085453019E-2,7.192938030E-2,-2.306016348E-2
8.986239290E-1,-4.612032697E-2,1.374446787E-2,-3.023782931E-2
9.086239290E-1,-2.183843218E-2,1.725694351E-2,-3.008511290E-2
9.186239290E-1,-5.803219974E-3,3.894266114E-2,-3.604105115E-2
9.286239290E-1,8.857546374E-3,7.024950534E-2,-3.970624134E-2
9.386239290E-1,1.863138936E-2,9.819658846E-2,-3.481931984E-2
9.486239290E-1,1.267545391E-2,1.237002090E-1,-2.275473066E-2
9.586239290E-1,4.581489484E-4,1.516472995E-1,2.748893574E-3
9.686239290E-1,1.618792862E-2,8.964447677E-2,-2.504547499E-2
9.786239290E-1,1.359175146E-2,7.391469181E-2,-1.649336144E-2
9.886239290E-1,1.237002108E-2,6.673702598E-2,-2.015855350E-2
9.986239290E-1,9.926560335E-3,7.391469181E-2,-2.504547499E-2
1.008623929E0,3.970623948E-3,8.491026610E-2,-2.886338346E-2
1.018623929E0,2.748893574E-3,8.491026610E-2,-3.130684420E-2
1.028623929E0,-9.162978968E-4,8.613199741E-2,-3.008511290E-2
1.038623929E0,-4.581489135E-3,7.284568250E-2,-2.886338346E-2
1.048623929E0,-5.955935922E-3,5.711590126E-2,-2.275473066E-2
1.058623929E0,-1.206458826E-2,5.467243865E-2,-2.031126991E-2
1.068623929E0,-1.679879427E-2,5.833763257E-2,-1.908953860E-2
1.078623929E0,-1.802052557E-2,8.261952549E-2,-1.802052557E-2
1.088623929E0,-1.908953860E-2,1.020144969E-1,-1.069014147E-2
1.098623929E0,-1.908953860E-2,1.189660057E-1,-7.024950348E-3
1.108623929E0,-1.542434748E-2,1.262963861E-1,-2.138028387E-3
1.118623929E0,-9.315694682E-3,1.226311997E-1,-5.803219974E-3
1.128623929E0,-5.803219974E-3,1.104138941E-1,-1.298088674E-2
1.138623929E0,-3.359758761E-3,9.957103431E-2,-1.908953860E-2
1.148623929E0,3.970623948E-3,9.453139454E-2,-2.886338346E-2
1.158623929E0,1.007927675E-2,9.697485715E-2,-3.359758854E-2
1.168623929E0,1.756237634E-2,1.078177169E-1,-4.214970022E-2
1.178623929E0,2.367102914E-2,1.113301888E-1,-5.192354694E-2
1.188623929E0,3.344487399E-2,1.015563458E-1,-6.520986557E-2
1.198623929E0,3.955352306E-2,8.827003092E-2,-7.131851465E-2
1.208623929E0,4.673119262E-2,5.787948146E-2,-8.582656831E-2
1.218623929E0,5.161811411E-2,3.237585723E-2,-9.300423414E-2
1.228623929E0,4.673119262E-2,1.542434748E-2,-1.064432710E-1
1.238623929E0,4.321871698E-2,2.153299935E-2,-1.113301888E-1
1.248623929E0,3.955352306E-2,2.641992271E-2,-1.101084575E-1
1.258623929E0,3.711006418E-2,4.825835302E-2,-9.437867999E-2
1.268623929E0,3.344487399E-2,7.498370856E-2,-8.109235764E-2
1.278623929E0,2.611448988E-2,9.071348608E-2,-7.254024595E-2
1.288623929E0,2.611448988E-2,7.987063378E-2,-6.276640296E-2
1.298623929E0,1.618792862E-2,5.696318299E-2,-5.665775016E-2
1.308623929E0,1.618792862E-2,5.696318299E-2,-5.665775016E-2
1.318623929E0,1.527163113E-4,2.672535367E-2,-3.237585723E-2
1.328623929E0,-6.108652335E-3,1.832595654E-2,-2.275473066E-2
1.338623929E0,-6.108652335E-3,1.832595654E-2,-2.275473066E-2
1.348623929E0,-3.527746722E-2,3.543018550E-2,-5.803219974E-3
1.358623929E0,-5.360342562E-2,3.191770986E-2,1.374446787E-3
1.368623929E0,-6.337726861E-2,2.962696366E-2,7.483099122E-3
1.378623929E0,-7.559457421E-2,2.000583708E-2,1.710422710E-2
1.388623929E0,-9.376781434E-2,2.626720630E-2,2.183843218E-2
1.398623929E0,-1.036943719E-1,9.315694682E-3,2.916881628E-2
1.408623929E0,-1.122464910E-1,1.053742506E-2,2.916881628E-2
1.418623929E0,-1.146899462E-1,-3.970623948E-3,3.405573592E-2
1.428623929E0,-1.099557430E-1,-1.481348183E-2,3.527746722E-2
1.438623929E0,-1.038470939E-1,-7.635815535E-3,3.894266114E-2
1.448623929E0,-9.651670605E-2,7.635815418E-4,4.138612002E-2
1.458623929E0,-9.162978828E-2,1.893682219E-2,4.749477282E-2
1.468623929E0,-8.781187981E-2,4.077525437E-2,4.749477282E-2
1.478623929E0,-8.292495459E-2,5.894849449E-2,4.993823543E-2
1.488623929E0,-8.155050874E-2,9.040805697E-2,4.749477282E-2
1.498623929E0,-7.666359097E-2,1.085812971E-1,4.505131021E-2
1.508623929E0,-6.933320314E-2,1.096503139E-1,4.382958263E-2
1.518623929E0,-6.444628537E-2,1.024726480E-1,3.543018550E-2
1.528623929E0,-5.100724846E-2,9.254608303E-2,2.565634064E-2
1.538623929E0,-3.649919853E-2,1.007927675E-2,-1.802052557E-2
1.548623929E0,-2.061670274E-2,3.420845419E-2,-5.650503561E-3
1.558623929E0,-3.252857551E-2,1.348485053E-1,-1.069014193E-3
1.568623929E0,-3.344487399E-2,1.699732542E-1,-7.177666761E-3
1.578623929E0,-3.145955876E-2,1.058324054E-1,2.596177394E-3
1.588623929E0,-2.199114859E-2,3.298672289E-2,-2.138028387E-3
1.598623929E0,-9.926560335E-3,1.527163113E-4,9.010262787E-3
1.608623929E0,3.359758761E-3,8.552113548E-3,1.389718428E-2
1.618623929E0,7.177666761E-3,1.710422710E-2,1.023199316E-2
1.628623929E0,1.450804994E-2,2.428189293E-2,9.162978269E-3
1.638623929E0,2.046398632E-2,9.773843922E-3,3.054326167E-3
1.648623929E0,2.168571576E-2,0.000000000E0,-1.832595794E-3
1.658623929E0,1.924225502E-2,-6.108652335E-3,-7.941247895E-3
1.668623929E0,2.183843218E-2,-4.886921961E-3,-1.511891466E-2
1.678623929E0,2.901609987E-2,-1.099557430E-2,-1.878410578E-2
1.688623929E0,3.756821156E-2,-2.199114859E-2,-2.244929783E-2
1.698623929E0,4.367686436E-2,-3.527746722E-2,-2.596177347E-2
1.708623929E0,5.207626149E-2,-4.749477282E-2,-2.962696366E-2
1.718623929E0,5.574145541E-2,-5.115996301E-2,-3.191770986E-2
1.728623929E0,5.574145541E-2,-5.482515693E-2,-2.962696366E-2
1.738623929E0,5.696318299E-2,-5.849034712E-2,-2.580905706E-2
1.748623929E0,5.696318299E-2,-5.971207842E-2,-2.229658142E-2
1.758623929E0,5.558873713E-2,-5.726861581E-2,-1.863138936E-2
1.768623929E0,5.329799280E-2,-4.993823543E-2,-1.374446787E-2
1.778623929E0,4.596760869E-2,-4.749477282E-2,-7.635815535E-3
1.788623929E0,3.970624134E-2,-4.978551716E-2,7.635815418E-4
1.798623929E0,2.748893574E-2,-5.574145541E-2,4.428773187E-3
1.808623929E0,2.031126991E-2,-5.329799280E-2,6.719517522E-3
1.818623929E0,1.053742506E-2,-4.474587739E-2,1.038470957E-2
1.828623929E0,-1.679879380E-3,-4.230241850E-2,1.038470957E-2
1.838623929E0,-7.635815535E-3,-4.337143153E-2,1.023199316E-2
1.848623929E0,-1.252273750E-2,-3.970624134E-2,1.389718428E-2
1.858623929E0,-1.863138936E-2,-2.764165215E-2,1.878410578E-2
1.868623929E0,-2.458732575E-2,-1.420261711E-2,1.863138936E-2
1.878623929E0,-2.580905706E-2,-1.298088674E-2,1.863138936E-2
1.888623929E0,-2.458732575E-2,-1.420261711E-2,1.863138936E-2
1.898623929E0,-2.474004216E-2,-1.664607786E-2,1.740965992E-2
1.908623929E0,-2.458732575E-2,-1.298088674E-2,1.863138936E-2
1.918623929E0,-2.458732575E-2,-7.024950348E-3,1.740965992E-2
1.928623929E0,-2.825251780E-2,2.748893574E-3,1.740965992E-2
1.938623929E0,-3.191770986E-2,8.857546374E-3,1.496619824E-2
1.948623929E0,-3.069597855E-2,5.192354787E-3,1.374446787E-2
1.958623929E0,-2.947424725E-2,-3.359758761E-3,1.252273750E-2
1.968623929E0,-2.580905706E-2,-5.803219974E-3,1.252273750E-2
1.978623929E0,-2.458732575E-2,-9.162978968E-4,1.374446787E-2
1.988623929E0,-2.580905706E-2,5.192354787E-3,1.496619824E-2
1.998623929E0,-2.458732575E-2,1.007927675E-2,1.740965992E-2
2.008623929E0,-2.825251780E-2,1.007927675E-2,1.496619824E-2
2.018623929E0,-2.809980139E-2,1.130100712E-2,1.007927675E-2
2.028623929E0,-2.932153270E-2,1.603521220E-2,1.007927675E-2
2.038623929E0,-3.176499158E-2,1.970040426E-2,8.857546374E-3
2.048623929E0,-3.298672289E-2,2.825251780E-2,8.857546374E-3
2.058623929E0,-3.298672289E-2,3.313944116E-2,8.857546374E-3
2.068623929E0,-3.405573592E-2,4.153883830E-2,1.130100712E-2
2.078623929E0,-3.054326214E-2,4.276056588E-2,1.252273750E-2
2.088623929E0,-3.176499158E-2,3.909537569E-2,1.007927675E-2
2.098623929E0,-3.176499158E-2,2.947424725E-2,1.130100712E-2
2.108623929E0,-3.298672289E-2,1.970040426E-2,1.130100712E-2
2.118623929E0,-3.665191308E-2,1.374446787E-2,8.857546374E-3
2.128623929E0,-4.153883830E-2,8.857546374E-3,5.192354787E-3
2.138623929E0,-4.520402849E-2,1.252273750E-2,6.414085161E-3
2.148623929E0,-4.871650413E-2,1.374446787E-2,2.748893574E-3
2.158623929E0,-4.749477282E-2,2.107485011E-2,1.527163084E-3
2.168623929E0,-4.871650413E-2,2.474004216E-2,1.527163113E-4
2.178623929E0,-5.360342562E-2,2.840523422E-2,-1.069014193E-3
2.188623929E0,-5.482515693E-2,2.107485011E-2,1.527163113E-4
2.198623929E0,-5.604688451E-2,1.618792862E-2,-2.290744567E-3
2.208623929E0,-5.726861581E-2,1.496619824E-2,-5.955935922E-3
2.218623929E0,-6.093380973E-2,1.740965992E-2,-3.512475174E-3
2.228623929E0,-5.604688451E-2,2.474004216E-2,-4.734205548E-3
2.238623929E0,-5.482515693E-2,2.107485011E-2,-4.734205548E-3
2.248623929E0,-5.360342562E-2,1.496619824E-2,-3.512475174E-3
2.258623929E0,-5.482515693E-2,1.023199316E-2,-4.734205548E-3
2.268623929E0,-5.360342562E-2,1.145372353E-2,-3.512475174E-3
2.278623929E0,-5.482515693E-2,1.145372353E-2,-1.069014193E-3
2.288623929E0,-5.238169432E-2,1.740965992E-2,-2.290744567E-3
2.298623929E0,-5.238169432E-2,2.962696366E-2,-2.290744567E-3
2.308623929E0,-5.222897977E-2,4.046982154E-2,-3.512475174E-3
2.318623929E0,-5.467243865E-2,3.680463135E-2,-2.290744567E-3
2.328623929E0,-5.604688451E-2,2.474004216E-2,1.374446787E-3
2.338623929E0,-5.604688451E-2,5.345070735E-3,3.817907767E-3
2.348623929E0,-5.742133409E-2,-1.038470957E-2,1.374446787E-3
2.358623929E0,-5.619960278E-2,-1.649336144E-2,-9.162978968E-4
2.368623929E0,-5.742133409E-2,-1.771509275E-2,3.054326226E-4
2.378623929E0,-5.971207842E-2,-5.497787148E-3,1.374446787E-3
2.388623929E0,-6.093380973E-2,7.788531948E-3,6.261368748E-3
2.398623929E0,-6.582073122E-2,1.756237634E-2,8.704829961E-3
2.408623929E0,-7.315111160E-2,2.611448988E-2,1.343903504E-2
2.418623929E0,-7.925976813E-2,3.100141138E-2,1.588249579E-2
2.428623929E0,-8.765916526E-2,3.222314268E-2,1.710422710E-2
2.438623929E0,-8.643743396E-2,3.100141138E-2,1.954768784E-2
2.448623929E0,-8.399397135E-2,3.466660157E-2,1.954768784E-2
2.458623929E0,-8.399397135E-2,3.466660157E-2,1.710422710E-2
2.468623929E0,-8.048149943E-2,2.489275858E-2,1.710422710E-2
2.478623929E0,-7.925976813E-2,1.756237634E-2,1.710422710E-2
2.488623929E0,-7.925976813E-2,1.878410578E-2,1.343903504E-2
2.498623929E0,-7.803803682E-2,2.489275858E-2,1.099557430E-2
2.508623929E0,-7.544185966E-2,3.451388702E-2,7.330383174E-3
2.518623929E0,-7.422012836E-2,3.695734590E-2,4.886921961E-3
2.528623929E0,-7.299839705E-2,3.207042441E-2,3.665191587E-3
2.538623929E0,-7.299839705E-2,3.451388702E-2,1.527163113E-4
2.548623929E0,-7.422012836E-2,3.451388702E-2,-1.069014193E-3
2.558623929E0,-7.544185966E-2,3.573561832E-2,-1.221730490E-3
2.568623929E0,-7.177666575E-2,4.657847434E-2,-2.443460980E-3
2.578623929E0,-6.795875728E-2,5.390885845E-2,-5.955935922E-3
2.588623929E0,-6.551529467E-2,5.146539584E-2,-8.399397135E-3
2.598623929E0,-5.833763257E-2,4.169155285E-2,-8.399397135E-3
2.608623929E0,-5.100724846E-2,3.313944116E-2,-1.191187184E-2
2.618623929E0,-4.749477282E-2,2.229658142E-2,-1.069014147E-2
2.628623929E0,-4.505131021E-2,1.496619824E-2,-1.191187184E-2
2.638623929E0,-4.382958263E-2,1.496619824E-2,-1.435533352E-2
2.648623929E0,-4.382958263E-2,2.336559631E-2,-1.435533352E-2
2.658623929E0,-4.123340547E-2,2.947424725E-2,-1.557706390E-2
2.668623929E0,-3.756821156E-2,3.543018550E-2,-1.435533352E-2
2.678623929E0,-3.039054573E-2,3.298672289E-2,-1.435533352E-2
2.688623929E0,-2.916881628E-2,2.458732575E-2,-1.313360315E-2
2.698623929E0,-1.939497143E-2,1.847867295E-2,-1.542434748E-2
2.708623929E0,-1.466076635E-2,1.114829071E-2,-1.786780916E-2
2.718623929E0,-1.099557430E-2,1.114829071E-2,-1.908953860E-2
2.728623929E0,-1.099557430E-2,9.926560335E-3,-2.031126991E-2
2.738623929E0,-1.084285788E-2,1.710422710E-2,-2.275473066E-2
2.748623929E0,-8.399397135E-3,1.832595654E-2,-2.397646010E-2
2.758623929E0,-8.399397135E-3,2.199114859E-2,-2.031126991E-2
2.768623929E0,-6.108652335E-3,1.954768784E-2,-2.031126991E-2
2.778623929E0,1.221730490E-3,1.710422710E-2,-1.649336144E-2
2.788623929E0,4.886921961E-3,1.221730467E-2,-1.404990070E-2
2.798623929E0,9.621127509E-3,8.552113548E-3,-1.404990070E-2
2.808623929E0,1.206458826E-2,9.773843922E-3,-1.527163107E-2
2.818623929E0,1.450804994E-2,9.773843922E-3,-1.527163107E-2
2.828623929E0,1.450804994E-2,1.206458826E-2,-1.649336144E-2
2.838623929E0,1.572977938E-2,1.084285788E-2,-1.649336144E-2
2.848623929E0,1.695151068E-2,1.450804994E-2,-1.771509275E-2
2.858623929E0,1.588249579E-2,2.183843218E-2,-2.138028294E-2
2.868623929E0,1.588249579E-2,2.183843218E-2,-2.138028294E-2
2.878623929E0,1.466076635E-2,2.672535367E-2,-1.771509275E-2
2.888623929E0,1.466076635E-2,3.390302137E-2,-1.893682219E-2
2.898623929E0,1.832595654E-2,4.123340547E-2,-1.771509275E-2
2.908623929E0,1.954768784E-2,4.367686436E-2,-1.771509275E-2
2.918623929E0,1.954768784E-2,4.245513305E-2,-1.893682219E-2
2.928623929E0,2.321287990E-2,4.230241850E-2,-1.771509275E-2
2.938623929E0,2.565634064E-2,3.985895589E-2,-1.893682219E-2
2.948623929E0,2.443460934E-2,4.108068720E-2,-2.138028294E-2
2.958623929E0,2.321287990E-2,4.352414981E-2,-2.138028294E-2
2.968623929E0,2.321287990E-2,4.596760869E-2,-2.015855350E-2
2.978623929E0,2.321287990E-2,4.963280261E-2,-2.015855350E-2
2.988623929E0,2.321287990E-2,4.963280261E-2,-2.015855350E-2
2.998623929E0,2.932153270E-2,4.474587739E-2,-2.000583708E-2
3.008623929E0,3.298672289E-2,3.985895589E-2,-2.000583708E-2
3.018623929E0,3.772092983E-2,3.619376570E-2,-1.878410578E-2
3.028623929E0,4.260785133E-2,3.741549700E-2,-1.756237634E-2
3.038623929E0,4.505131021E-2,3.008511290E-2,-1.756237634E-2
3.048623929E0,4.627304152E-2,2.290744707E-2,-1.511891466E-2
3.058623929E0,4.489859566E-2,1.435533352E-2,-1.145372353E-2
3.068623929E0,4.367686436E-2,9.468411095E-3,-1.023199316E-2
3.078623929E0,4.367686436E-2,8.246680722E-3,-9.010262787E-3
3.088623929E0,4.245513305E-2,1.313360315E-2,-6.566801574E-3
3.098623929E0,4.489859566E-2,1.557706390E-2,-7.788531948E-3
3.108623929E0,4.489859566E-2,1.924225502E-2,-6.566801574E-3
3.118623929E0,4.734205827E-2,1.435533352E-2,-4.123340361E-3
3.128623929E0,5.222897977E-2,5.803219974E-3,-4.123340361E-3
3.138623929E0,5.085453019E-2,-7.483099122E-3,-2.901609987E-3
3.148623929E0,5.451972410E-2,-1.359175146E-2,-3.054326226E-4
3.158623929E0,5.451972410E-2,-1.114829071E-2,9.162978968E-4
3.168623929E0,5.329799280E-2,-3.817907767E-3,-4.581489484E-4
3.178623929E0,5.207626149E-2,-2.596177394E-3,1.985311974E-3
3.188623929E0,5.207626149E-2,-2.596177394E-3,1.985311974E-3
3.198623929E0,5.207626149E-2,-1.527163113E-4,1.985311974E-3
3.208623929E0,5.329799280E-2,3.359758761E-3,1.985311974E-3
3.218623929E0,5.451972410E-2,7.024950348E-3,1.985311974E-3
3.228623929E0,5.085453019E-2,3.512475174E-3,4.428773187E-3
3.238623929E0,4.841107130E-2,1.069014193E-3,4.428773187E-3
3.248623929E0,4.612032697E-2,1.069014193E-3,-4.581489484E-4
3.258623929E0,4.245513305E-2,1.069014193E-3,-4.581489484E-4
3.268623929E0,4.123340547E-2,3.512475174E-3,-1.679879380E-3
3.278623929E0,3.878994286E-2,4.734205548E-3,-1.679879380E-3
3.288623929E0,4.123340547E-2,7.177666761E-3,-4.581489484E-4
3.298623929E0,4.489859566E-2,5.955935922E-3,-4.581489484E-4
3.308623929E0,4.734205827E-2,8.246680722E-3,3.207042580E-3
3.318623929E0,4.718934000E-2,4.734205548E-3,1.985311974E-3
3.328623929E0,4.596760869E-2,1.069014193E-3,7.635815418E-4
3.338623929E0,4.230241850E-2,-6.261368748E-3,4.428773187E-3
3.348623929E0,4.230241850E-2,-1.221730467E-2,1.985311974E-3
3.358623929E0,3.741549700E-2,-1.832595654E-2,7.635815418E-4
3.368623929E0,3.375030309E-2,-2.061670274E-2,4.428773187E-3
3.378623929E0,3.130684420E-2,-1.817324013E-2,1.985311974E-3
3.388623929E0,3.008511290E-2,-2.061670274E-2,3.207042580E-3
3.398623929E0,3.008511290E-2,-2.306016348E-2,4.428773187E-3
3.408623929E0,3.008511290E-2,-3.039054573E-2,3.207042580E-3
3.418623929E0,3.130684420E-2,-3.283400834E-2,3.207042580E-3
3.428623929E0,3.252857551E-2,-3.405573592E-2,7.635815418E-4
3.438623929E0,3.497203439E-2,-3.161227703E-2,7.635815418E-4
3.448623929E0,3.375030309E-2,-3.405573592E-2,-1.679879380E-3
3.458623929E0,3.375030309E-2,-3.649919853E-2,-1.679879380E-3
3.468623929E0,3.130684420E-2,-3.527746722E-2,-5.345070735E-3
3.478623929E0,2.641992271E-2,-3.634648025E-2,-7.788531948E-3
3.488623929E0,2.657263726E-2,-3.512475267E-2,-7.788531948E-3
3.498623929E0,2.290744707E-2,-3.390302137E-2,-7.788531948E-3
3.508623929E0,2.046398632E-2,-3.145955876E-2,-9.010262787E-3
3.518623929E0,1.679879427E-2,-3.268129006E-2,-7.941247895E-3
3.528623929E0,1.679879427E-2,-3.390302137E-2,-9.162978269E-3
3.538623929E0,1.435533352E-2,-3.268129006E-2,-9.162978269E-3
3.548623929E0,1.557706390E-2,-3.268129006E-2,-9.162978269E-3
3.558623929E0,1.191187184E-2,-3.145955876E-2,-1.160643995E-2
3.568623929E0,1.191187184E-2,-2.535090782E-2,-1.404990070E-2
3.578623929E0,1.084285788E-2,-1.939497143E-2,-1.649336144E-2
3.588623929E0,9.773843922E-3,-5.955935922E-3,-2.626720630E-2
3.598623929E0,7.330383174E-3,3.665191587E-3,-3.115412779E-2
3.608623929E0,7.330383174E-3,1.572977938E-2,-3.481931984E-2
3.618623929E0,6.261368748E-3,2.428189293E-2,-3.970624134E-2
3.628623929E0,3.817907767E-3,2.672535367E-2,-4.092797264E-2
3.638623929E0,1.374446787E-3,2.061670274E-2,-4.214970022E-2
3.648623929E0,-1.069014193E-3,8.552113548E-3,-4.092797264E-2
3.658623929E0,-2.290744567E-3,-3.512475174E-3,-4.214970022E-2
3.668623929E0,-3.665191587E-3,-1.924225502E-2,-3.970624134E-2
3.678623929E0,-4.886921961E-3,-2.901609987E-2,-3.726277873E-2
3.688623929E0,-4.886921961E-3,-3.145955876E-2,-3.237585723E-2
3.698623929E0,-7.483099122E-3,-3.130684420E-2,-2.871066704E-2
3.708623929E0,-1.237002108E-2,-3.375030309E-2,-2.626720630E-2
3.718623929E0,-1.359175146E-2,-4.108068720E-2,-2.382374369E-2
3.728623929E0,-1.481348183E-2,-4.581489414E-2,-2.382374369E-2
3.738623929E0,-1.359175146E-2,-5.192354694E-2,-2.138028294E-2
3.748623929E0,-1.359175146E-2,-4.825835302E-2,-2.138028294E-2
3.758623929E0,-1.114829071E-2,-4.581489414E-2,-2.015855350E-2
3.768623929E0,-1.114829071E-2,-4.108068720E-2,-1.893682219E-2
3.778623929E0,-1.114829071E-2,-4.108068720E-2,-1.893682219E-2
3.788623929E0,-1.237002108E-2,-3.741549700E-2,-1.282817032E-2
3.798623929E0,-1.237002108E-2,-3.619376570E-2,-1.038470957E-2
3.808623929E0,-1.359175146E-2,-3.497203439E-2,-5.650503561E-3
3.818623929E0,-1.496619824E-2,-3.848451003E-2,-1.985311974E-3
3.828623929E0,-1.496619824E-2,-3.497203439E-2,4.581489484E-4
3.838623929E0,-1.007927675E-2,-3.497203439E-2,2.901609987E-3
3.848623929E0,-8.857546374E-3,-3.375030309E-2,2.901609987E-3
3.858623929E0,-2.748893574E-3,-2.535090782E-2,4.276056774E-3
3.868623929E0,2.138028387E-3,-1.206458826E-2,4.276056774E-3
3.878623929E0,5.955935922E-3,1.374446787E-3,4.276056774E-3
3.888623929E0,7.177666761E-3,1.832595654E-2,4.276056774E-3
3.898623929E0,4.734205548E-3,2.672535367E-2,7.788531948E-3
3.908623929E0,1.069014193E-3,2.565634064E-2,7.788531948E-3
3.918623929E0,-1.374446787E-3,2.199114859E-2,6.566801574E-3
3.928623929E0,-6.261368748E-3,2.443460934E-2,6.566801574E-3
3.938623929E0,-9.773843922E-3,3.176499158E-2,1.679879380E-3
3.948623929E0,-8.552113548E-3,3.298672289E-2,1.679879380E-3
3.958623929E0,-9.773843922E-3,2.932153270E-2,4.581489484E-4
3.968623929E0,-1.099557430E-2,2.809980139E-2,4.581489484E-4
3.978623929E0,-1.099557430E-2,2.076941915E-2,2.901609987E-3
3.988623929E0,-9.926560335E-3,1.359175146E-2,2.901609987E-3
3.998623929E0,-1.114829071E-2,2.596177394E-3,6.566801574E-3
4.008623929E0,-1.237002108E-2,-3.359758761E-3,7.788531948E-3
4.018623929E0,-1.481348183E-2,-1.069014147E-2,7.788531948E-3
4.028623929E0,-1.603521220E-2,-7.024950348E-3,5.345070735E-3
4.038623929E0,-1.603521220E-2,-5.803219974E-3,5.345070735E-3
4.048623929E0,-1.359175146E-2,1.527163113E-4,5.345070735E-3
4.058623929E0,-1.237002108E-2,3.817907767E-3,5.345070735E-3
4.068623929E0,-1.114829071E-2,8.704829961E-3,7.788531948E-3
4.078623929E0,-8.704829961E-3,1.114829071E-2,6.566801574E-3
4.088623929E0,-7.483099122E-3,1.466076635E-2,6.566801574E-3
4.098623929E0,-5.039638374E-3,1.466076635E-2,5.345070735E-3
4.108623929E0,-3.817907767E-3,1.099557430E-2,4.123340361E-3
4.118623929E0,-1.527163113E-4,9.773843922E-3,1.679879380E-3
4.128623929E0,3.512475174E-3,8.552113548E-3,6.108652451E-4
4.138623929E0,5.955935922E-3,7.330383174E-3,-6.108652451E-4
4.148623929E0,9.621127509E-3,9.773843922E-3,-1.832595794E-3
4.158623929E0,1.328631863E-2,9.773843922E-3,6.108652451E-4
4.168623929E0,1.450804994E-2,1.450804994E-2,-1.832595794E-3
4.178623929E0,1.939497143E-2,1.939497143E-2,-1.832595794E-3
4.188623929E0,1.939497143E-2,2.306016348E-2,-1.832595794E-3
4.198623929E0,1.817324013E-2,1.939497143E-2,-6.108652451E-4
4.208623929E0,1.695151068E-2,1.450804994E-2,-3.054326167E-3
4.218623929E0,1.450804994E-2,3.665191587E-3,6.108652451E-4
4.228623929E0,9.621127509E-3,0.000000000E0,-6.108652451E-4
4.238623929E0,7.024950348E-3,-2.290744567E-3,3.054326167E-3
4.248623929E0,5.803219974E-3,1.374446787E-3,6.719517522E-3
4.258623929E0,3.512475174E-3,5.039638374E-3,6.566801574E-3
4.268623929E0,2.290744567E-3,5.039638374E-3,6.566801574E-3
4.278623929E0,1.069014193E-3,9.773843922E-3,6.566801574E-3
4.288623929E0,-1.527163113E-4,1.588249579E-2,7.788531948E-3
4.298623929E0,-1.374446787E-3,1.466076635E-2,9.010262787E-3
4.308623929E0,-5.039638374E-3,1.343903504E-2,7.788531948E-3
4.318623929E0,-6.261368748E-3,9.926560335E-3,9.010262787E-3
4.328623929E0,-6.261368748E-3,9.926560335E-3,7.788531948E-3
4.338623929E0,-5.039638374E-3,2.596177394E-3,1.023199316E-2
4.348623929E0,-3.817907767E-3,1.527163113E-4,7.788531948E-3
4.358623929E0,-3.817907767E-3,1.374446787E-3,4.123340361E-3
4.368623929E0,-3.817907767E-3,7.483099122E-3,4.123340361E-3
4.378623929E0,-5.039638374E-3,1.237002108E-2,5.345070735E-3
4.388623929E0,-6.261368748E-3,1.588249579E-2,6.566801574E-3
4.398623929E0,-1.237002108E-2,9.926560335E-3,7.788531948E-3
4.408623929E0,-1.970040426E-2,3.054326226E-4,1.023199316E-2
4.418623929E0,-2.809980139E-2,3.970623948E-3,7.635815535E-3
4.428623929E0,-3.298672289E-2,1.130100712E-2,6.414085161E-3
4.438623929E0,-3.543018550E-2,2.336559631E-2,5.192354787E-3
4.448623929E0,-3.283400834E-2,3.543018550E-2,3.970623948E-3
4.458623929E0,-2.672535367E-2,4.871650413E-2,3.970623948E-3
4.468623929E0,-2.183843218E-2,5.482515693E-2,1.527163084E-3
4.478623929E0,-1.817324013E-2,6.322455406E-2,1.527163084E-3
4.488623929E0,-1.450804994E-2,8.139779419E-2,-2.138028387E-3
4.498623929E0,-1.069014147E-2,1.032362282E-1,-3.359758761E-3
4.508623929E0,-4.581489135E-3,1.153008118E-1,-5.803219974E-3
4.518623929E0,3.054326226E-4,1.237002090E-1,-5.650503561E-3
4.528623929E0,5.192354787E-3,1.369865239E-1,-3.207042580E-3
4.538623929E0,1.023199316E-2,1.600466967E-1,-3.207042580E-3
4.548623929E0,1.267545391E-2,1.769981980E-1,1.679879380E-3
4.558623929E0,1.267545391E-2,1.963931769E-1,5.192354787E-3
4.568623929E0,1.038470957E-2,2.109012306E-1,8.857546374E-3
4.578623929E0,4.276056774E-3,2.280054539E-1,1.374446787E-2
4.588623929E0,-3.054326167E-3,2.461786866E-1,1.847867295E-2
4.598623929E0,-1.634064503E-2,2.706133127E-1,2.565634064E-2
4.608623929E0,-3.207042441E-2,2.973386645E-1,2.932153270E-2
4.618623929E0,-4.291328415E-2,3.142901659E-1,3.161227703E-2
4.628623929E0,-4.535674304E-2,3.191770911E-1,3.161227703E-2
4.638623929E0,-4.184427112E-2,2.852740586E-1,2.794708498E-2
4.648623929E0,-2.977968007E-2,2.367102802E-1,2.076941915E-2
4.658623929E0,-1.649336144E-2,2.147191316E-1,1.359175146E-2
4.668623929E0,-1.832595794E-3,2.147191316E-1,5.192354787E-3
4.678623929E0,2.260201424E-2,2.205223590E-1,-7.635815418E-4
4.688623929E0,4.566217586E-2,2.131919712E-1,-3.054326167E-3
4.698623929E0,7.360926270E-2,1.924225539E-1,-7.788531948E-3
4.708623929E0,9.178250283E-2,1.765400618E-1,-1.130100712E-2
4.718623929E0,1.039998084E-1,1.800525337E-1,-1.496619824E-2
4.728623929E0,1.088867337E-1,1.800525337E-1,-1.130100712E-2
4.738623929E0,1.111774743E-1,1.812742651E-1,-7.635815535E-3
4.748623929E0,1.111774743E-1,1.823432744E-1,-7.635815535E-3
4.758623929E0,1.111774743E-1,1.847867370E-1,-5.192354787E-3
4.768623929E0,1.075122803E-1,1.800525337E-1,-2.748893574E-3
4.778623929E0,1.001819000E-1,1.763873398E-1,2.138028387E-3
4.788623929E0,8.796459436E-2,1.620320082E-1,7.635815418E-4
4.798623929E0,8.552113175E-2,1.463022232E-1,-4.581489484E-4
4.808623929E0,8.063421398E-2,1.207986027E-1,-3.970623948E-3
4.818623929E0,7.803803682E-2,9.422596544E-2,-6.414085161E-3
4.828623929E0,7.559457421E-2,7.727445662E-2,-6.414085161E-3
4.838623929E0,7.681630552E-2,7.238753140E-2,-3.970623948E-3
4.848623929E0,7.559457421E-2,7.360926270E-2,-2.748893574E-3
4.858623929E0,7.422012836E-2,7.238753140E-2,3.359758761E-3
4.868623929E0,7.055493444E-2,6.750060618E-2,9.315694682E-3
4.878623929E0,6.444628537E-2,6.643159688E-2,1.542434748E-2
4.888623929E0,5.345070735E-2,7.009678334E-2,1.786780916E-2
4.898623929E0,4.138612002E-2,6.658431143E-2,1.771509275E-2
4.908623929E0,3.390302137E-2,5.818491429E-2,2.138028294E-2
4.918623929E0,2.779436857E-2,4.718934000E-2,2.382374369E-2
4.928623929E0,2.046398632E-2,4.489859566E-2,2.611448988E-2
4.938623929E0,1.679879427E-2,4.367686436E-2,2.611448988E-2
4.948623929E0,1.557706390E-2,4.245513305E-2,2.977968007E-2
4.958623929E0,9.468411095E-3,4.138612002E-2,3.222314268E-2
4.968623929E0,3.359758761E-3,4.382958263E-2,3.833179548E-2
4.978623929E0,-8.704829961E-3,5.360342562E-2,4.184427112E-2
4.988623929E0,-2.092213556E-2,6.215553731E-2,4.535674304E-2
4.998623929E0,-3.665191308E-2,8.170322329E-2,5.024366826E-2
5.008623929E0,-5.726861581E-2,1.023199260E-1,5.497787148E-2
5.018623929E0,-7.544185966E-2,1.169806942E-1,5.971207842E-2
5.028623929E0,-9.132435173E-2,1.122464910E-1,6.444628537E-2
5.038623929E0,-1.096503139E-1,1.015563458E-1,6.688974798E-2
5.048623929E0,-1.278235465E-1,8.704829961E-2,6.185010448E-2
5.058623929E0,-1.412625909E-1,7.391469181E-2,5.818491429E-2
5.068623929E0,-1.534798890E-1,5.940664560E-2,5.314527452E-2
5.078623929E0,-1.583668143E-1,4.001167417E-2,4.963280261E-2
5.088623929E0,-1.572978050E-1,1.450804994E-2,4.474587739E-2
5.098623929E0,-1.475239545E-1,-1.221730490E-3,3.985895589E-2
5.108623929E0,-1.244637966E-1,-2.076941915E-2,3.039054573E-2
5.118623929E0,-8.796459436E-2,-4.169155285E-2,2.443460934E-2
5.128623929E0,-4.428773001E-2,-6.505715102E-2,1.618792862E-2
5.138623929E0,-4.123340361E-3,-7.620543987E-2,1.282817032E-2
5.148623929E0,4.566217586E-2,-7.284568250E-2,7.024950348E-3
5.158623929E0,9.208793938E-2,-3.191770986E-2,3.512475174E-3
5.168623929E0,1.252273768E-1,2.962696366E-2,1.221730490E-3
5.178623929E0,1.718058437E-1,1.262963861E-1,2.596177394E-3
5.188623929E0,2.134974003E-1,2.109012306E-1,1.527163084E-3
5.198623929E0,2.660318017E-1,2.553416789E-1,-1.038470957E-2
5.208623929E0,3.171917796E-1,2.587014437E-1,-2.596177347E-2
5.218623929E0,3.900374472E-1,2.157881409E-1,-4.993823543E-2
5.228623929E0,4.714352489E-1,1.266018152E-1,-7.864890248E-2
5.238623929E0,5.418374538E-1,4.016438872E-2,-1.122464910E-1
5.248623929E0,5.771149397E-1,9.621127509E-3,-1.351539344E-1
5.258623929E0,5.917757154E-1,1.435533352E-2,-1.545489132E-1
5.268623929E0,5.774203539E-1,2.397646010E-2,-1.716531366E-1
5.278623929E0,5.288565755E-1,5.100724846E-2,-1.768454909E-1
5.288623929E0,4.245513380E-1,1.281289905E-1,-1.666134894E-1
5.298623929E0,2.762638032E-1,1.945605874E-1,-1.418734491E-1
5.308623929E0,1.059851199E-1,2.319760770E-1,-1.136209369E-1
5.318623929E0,-3.863722831E-2,2.596177161E-1,-1.010981947E-1
5.328623929E0,-2.162462920E-1,2.643519342E-1,-9.605856240E-2
5.338623929E0,-3.622430861E-1,2.434297949E-1,-9.804387391E-2
5.348623929E0,-4.631885588E-1,2.113593817E-1,-1.070541367E-1
5.358623929E0,-5.045747161E-1,1.824959964E-1,-1.218676195E-1
5.368623929E0,-5.070181489E-1,1.291979998E-1,-1.475239545E-1
5.378623929E0,-4.729624093E-1,9.254608303E-2,-1.777617931E-1
5.388623929E0,-4.121813178E-1,5.467243865E-2,-1.870774776E-1
5.398623929E0,-3.575088978E-1,3.237585723E-2,-2.049452960E-1
5.408623929E0,-2.893974185E-1,1.374446787E-2,-2.229658216E-1
5.418623929E0,-2.251038402E-1,-2.779436857E-2,-2.286163121E-1
5.428623929E0,-1.863138974E-1,-7.055493444E-2,-2.209804952E-1
5.438623929E0,-1.488984078E-1,-1.021672115E-1,-2.049452960E-1
5.448623929E0,-1.186605766E-1,-9.880745411E-2,-1.730275750E-1
5.458623929E0,-1.030835137E-1,-7.696902007E-2,-1.279762685E-1
5.468623929E0,-8.857546002E-2,-5.757404864E-2,-9.865473956E-2
5.478623929E0,-7.773260027E-2,-4.062253982E-2,-5.711590126E-2
5.488623929E0,-8.155050874E-2,-1.756237634E-2,-1.939497143E-2
5.498623929E0,-9.269879758E-2,1.038470957E-2,1.466076635E-2
5.508623929E0,-1.059851199E-1,4.321871698E-2,3.894266114E-2
5.518623929E0,-1.339322031E-1,9.193521738E-2,6.062837690E-2
5.528623929E0,-1.533271819E-1,1.369865239E-1,7.620543987E-2
5.538623929E0,-1.618792862E-1,1.539380401E-1,8.842274547E-2
5.548623929E0,-1.606575549E-1,1.588249654E-1,1.018617824E-1
5.558623929E0,-1.595885456E-1,1.455386430E-1,1.030835137E-1
5.568623929E0,-1.547016203E-1,1.224784851E-1,1.043052375E-1
5.578623929E0,-1.585195363E-1,1.043052375E-1,1.043052375E-1
5.588623929E0,-1.670716405E-1,9.834930301E-2,1.079704314E-1
5.598623929E0,-1.780672222E-1,1.020144969E-1,1.212567538E-1
5.608623929E0,-1.890627891E-1,1.093448773E-1,1.237002090E-1
5.618623929E0,-1.925752759E-1,1.240056455E-1,1.259909570E-1
5.628623929E0,-1.937969923E-1,1.421788931E-1,1.333213449E-1
5.638623929E0,-1.913535446E-1,1.530217379E-1,1.382082552E-1
5.648623929E0,-1.950187236E-1,1.579086632E-1,1.430951804E-1
5.658623929E0,-2.047925740E-1,1.543961912E-1,1.441642046E-1
5.668623929E0,-2.267837226E-1,1.496619880E-1,1.550070494E-1
5.678623929E0,-2.570215464E-1,1.608102769E-1,1.536326110E-1
5.688623929E0,-2.788599730E-1,1.632537395E-1,1.426370293E-1
5.698623929E0,-2.982549667E-1,1.562287807E-1,1.314887404E-1
5.708623929E0,-3.225368559E-1,1.478293836E-1,1.240056455E-1
5.718623929E0,-3.410155177E-1,9.941831976E-2,1.301143020E-1
5.728623929E0,-3.582724631E-1,4.016438872E-2,1.227839142E-1
5.738623929E0,-3.791945875E-1,-2.519819140E-2,1.093448773E-1
5.748623929E0,-3.964515328E-1,-9.529497474E-2,1.032362282E-1
5.758623929E0,-4.014911950E-1,-1.777617931E-1,9.468411654E-2
5.768623929E0,-4.016439021E-1,-2.371684313E-1,8.628471941E-2
5.778623929E0,-3.921754956E-1,-2.977968156E-1,7.422012836E-2
5.788623929E0,-3.824016452E-1,-3.512475193E-1,5.115996301E-2
5.798623929E0,-3.762930036E-1,-3.804163337E-1,2.076941915E-2
5.808623929E0,-3.833179474E-1,-3.730859458E-1,-1.343903504E-2
5.818623929E0,-4.300491214E-1,-2.273945808E-1,-4.062253982E-2
5.828623929E0,-4.914411008E-1,1.053742506E-2,-1.069014193E-3
5.838623929E0,-5.398521423E-1,7.880161703E-2,1.695151068E-2
5.848623929E0,-5.494732857E-1,2.616030276E-1,-8.933904022E-2
5.858623929E0,-5.093088746E-1,4.054618180E-1,-1.953241676E-1
5.868623929E0,-3.355177343E-1,3.133738637E-1,-2.380847335E-1
5.878623929E0,-1.087340117E-1,1.446223408E-1,-2.499966025E-1
5.888623929E0,1.713477075E-1,-6.673702598E-2,-2.567161322E-1
5.898623929E0,3.620903790E-1,-1.795943826E-1,-2.872593701E-1
5.908623929E0,4.641048610E-1,-2.275473028E-1,-3.060434759E-1
5.918623929E0,5.283984542E-1,-2.958115041E-1,-3.104722500E-1
5.928623929E0,5.050328374E-1,-3.258966208E-1,-2.935207486E-1
5.938623929E0,3.834706545E-1,-2.777909636E-1,-2.590068579E-1
5.948623929E0,2.472477108E-1,-1.992947906E-1,-2.208277881E-1
5.958623929E0,5.009094998E-2,-1.313360333E-1,-1.354593635E-1
5.968623929E0,-1.522581577E-1,-8.506298810E-2,-4.291328415E-2
5.978623929E0,-3.278819323E-1,-9.712757170E-2,2.809980139E-2
5.988623929E0,-4.254676402E-1,-1.314887404E-1,7.147123665E-2
5.998623929E0,-5.109887719E-1,-1.637118906E-1,1.062905490E-1
6.008623929E0,-5.560401082E-1,-1.511891484E-1,1.230893433E-1
6.018623929E0,-5.473352671E-1,-8.827003092E-2,1.328631938E-1
6.028623929E0,-5.019785166E-1,1.450804994E-2,1.305724531E-1
6.038623929E0,-4.198171496E-1,9.987647086E-2,9.315694869E-2
6.048623929E0,-2.929098904E-1,1.401935667E-1,4.260785133E-2
6.058623929E0,-1.797471046E-1,1.188132912E-1,1.832595794E-3
6.068623929E0,-3.268129006E-2,4.398229718E-2,-3.008511290E-2
6.078623929E0,1.020144969E-1,-5.879577994E-2,-3.420845419E-2
6.088623929E0,2.110539377E-1,-1.406517178E-1,-2.367102914E-2
6.098623929E0,2.692388594E-1,-1.664607823E-1,-2.596177394E-3
6.108623929E0,3.249803185E-1,-1.618792862E-1,2.932153270E-2
6.118623929E0,3.721696436E-1,-1.269072592E-1,7.345654815E-2
6.128623929E0,4.086688459E-1,-5.558873713E-2,1.174388453E-1
6.138623929E0,4.234823287E-1,1.939497143E-2,1.333213449E-1
6.148623929E0,4.335615933E-1,9.697485715E-2,1.296561509E-1
6.158623929E0,4.314235747E-1,1.721112877E-1,1.331686229E-1
6.168623929E0,4.144720733E-1,2.182316035E-1,1.354593635E-1
6.178623929E0,3.878994286E-1,2.620611787E-1,1.255328059E-1
6.188623929E0,3.625485301E-1,2.742784917E-1,1.168279797E-1
6.198623929E0,3.553708494E-1,2.671008408E-1,8.139779419E-2
6.208623929E0,3.556762934E-1,2.742784917E-1,4.489859566E-2
6.218623929E0,3.630066812E-1,2.414444834E-1,1.450804994E-2
6.228623929E0,3.764457107E-1,1.965458989E-1,-8.552113548E-3
6.238623929E0,3.862195611E-1,1.453859210E-1,-4.993823543E-2
6.248623929E0,3.933972120E-1,9.682214260E-2,-7.406741381E-2
6.258623929E0,4.080579877E-1,5.192354694E-2,-1.069014147E-1
6.268623929E0,4.179845452E-1,3.481931984E-2,-1.421788931E-1
6.278623929E0,4.094324410E-1,2.397646010E-2,-1.605048478E-1
6.288623929E0,3.949243724E-1,1.802052557E-2,-1.763873398E-1
6.298623929E0,3.743076921E-1,5.955935922E-3,-1.887573600E-1
6.308623929E0,3.512475193E-1,4.886921961E-3,-1.912008226E-1
6.318623929E0,3.404046595E-1,4.886921961E-3,-1.974621862E-1
6.328623929E0,3.283400834E-1,2.199114859E-2,-2.047925740E-1
6.338623929E0,3.321579695E-1,6.200282276E-2,-2.096794993E-1
6.348623929E0,3.504839242E-1,9.941831976E-2,-2.072360367E-1
6.358623929E0,3.735440969E-1,1.137736514E-1,-1.997529417E-1
6.368623929E0,4.184426963E-1,9.896016866E-2,-1.824959964E-1
6.378623929E0,4.644103050E-1,6.475171447E-2,-1.675297916E-1
6.388623929E0,4.946481287E-1,3.436116874E-2,-1.637118906E-1
6.398623929E0,5.236642361E-1,-3.512475174E-3,-1.634064466E-1
6.408623929E0,5.467243791E-1,-5.451972410E-2,-1.742493063E-1
6.418623929E0,5.671883821E-1,-1.383609772E-1,-1.873829067E-1
6.428623929E0,5.874996781E-1,-2.330450863E-1,-1.921171248E-1
6.438623929E0,6.223189831E-1,-3.750712574E-1,-2.038762718E-1
6.448623929E0,6.643159389E-1,-5.099197626E-1,-2.193006277E-1
6.458623929E0,7.212791443E-1,-5.998696685E-1,-2.286163121E-1
6.468623929E0,7.443392873E-1,-5.612324476E-1,-2.078468949E-1
6.478623929E0,7.522805333E-1,-2.835941911E-1,-1.398881376E-1
6.488623929E0,7.512115240E-1,1.206458826E-2,-1.621847153E-1
6.498623929E0,7.550294399E-1,2.060143054E-1,-6.734789163E-2
6.508623929E0,6.635523438E-1,3.704897761E-1,7.086037099E-2
6.518623929E0,4.697553813E-1,3.790418804E-1,1.404990107E-1
6.528623929E0,2.487748712E-1,1.927279830E-1,1.747074574E-1
6.538623929E0,6.185010448E-2,-3.634648025E-2,1.666134894E-1
6.548623929E0,-1.362229437E-1,-3.381139040E-1,1.585195363E-1
6.558623929E0,-2.333505303E-1,-5.386304259E-1,2.167044431E-1
6.568623929E0,-2.532036304E-1,-5.784893632E-1,2.374738604E-1
6.578623929E0,-2.530509233E-1,-5.578727126E-1,2.264782935E-1
6.588623929E0,-2.307543457E-1,-5.155702829E-1,2.009746730E-1
6.598623929E0,-1.959350258E-1,-3.776674271E-1,1.559233516E-1
6.608623929E0,-1.763873398E-1,-1.756237596E-1,7.651086897E-2
6.618623929E0,-1.583668143E-1,-2.428189293E-2,1.557706390E-2
6.628623929E0,-1.550070494E-1,1.125519201E-1,-5.528330430E-2
6.638623929E0,-1.957823038E-1,1.939497143E-1,-1.020144969E-1
6.648623929E0,-2.562579811E-1,2.475531399E-1,-1.206458881E-1
6.658623929E0,-3.581197560E-1,3.367394805E-1,-1.237002090E-1
6.668623929E0,-4.734205604E-1,4.271475375E-1,-1.001819000E-1
6.678623929E0,-5.829181671E-1,4.497495294E-1,-7.391469181E-2
6.688623929E0,-6.620252132E-1,4.126394689E-1,-7.070764899E-2
6.698623929E0,-7.463245988E-1,3.295617998E-1,-7.101308554E-2
6.708623929E0,-8.040513992E-1,2.040289938E-1,-6.276640296E-2
6.718623929E0,-8.397870064E-1,7.330382615E-2,-6.765332818E-2
6.728623929E0,-8.495608568E-1,4.276056774E-3,-8.949175477E-2
6.738623929E0,-8.497135639E-1,-4.795292020E-2,-1.114829108E-1
6.748623929E0,-8.411614299E-1,-9.651670605E-2,-1.333213449E-1
6.758623929E0,-8.313875794E-1,-9.896016866E-2,-1.453859210E-1
6.768623929E0,-8.095491529E-1,-6.276640296E-2,-1.050688252E-1
6.778623929E0,-7.950411439E-1,1.527163084E-3,-6.123924255E-2
6.788623929E0,-7.791585922E-1,7.788532227E-2,-2.214386500E-2
6.798623929E0,-7.622070909E-1,9.712757170E-2,4.734205548E-3
6.808623929E0,-7.247915864E-1,8.964447677E-2,4.260785133E-2
6.818623929E0,-6.776022911E-1,9.300423414E-2,7.941248268E-2
6.828623929E0,-6.302602291E-1,1.024726480E-1,9.804387391E-2
6.838623929E0,-5.900958180E-1,1.180497110E-1,9.697485715E-2
6.848623929E0,-5.158756971E-1,1.198823079E-1,9.987647086E-2
6.858623929E0,-4.393648207E-1,1.024726480E-1,9.056077152E-2
6.868623929E0,-3.762930036E-1,5.482515693E-2,8.246681094E-2
6.878623929E0,-2.997821271E-1,-2.092213556E-2,7.192938030E-2
6.888623929E0,-2.356412709E-1,-7.101308554E-2,7.116580009E-2
6.898623929E0,-1.832595766E-1,-6.276640296E-2,7.269296050E-2
6.908623929E0,-1.443169117E-1,-3.390302137E-2,8.384125680E-2
6.918623929E0,-1.017090604E-1,-5.192354787E-3,1.010981947E-1
6.928623929E0,-6.765332818E-2,1.527163107E-2,1.183551401E-1
6.938623929E0,-4.459316283E-2,4.428773001E-2,1.354593635E-1
6.948623929E0,-3.726277873E-2,8.185594529E-2,1.440114826E-1
6.958623929E0,-2.977968007E-2,1.290452778E-1,1.501201391E-1
6.968623929E0,-1.267545391E-2,1.495092660E-1,1.562287807E-1
6.978623929E0,7.941247895E-3,1.385136992E-1,1.478293836E-1
6.988623929E0,2.504547499E-2,8.491026610E-2,1.017090604E-1
6.998623929E0,3.481931984E-2,-2.306016348E-2,3.481931984E-2
7.008623929E0,2.382374369E-2,-1.163698286E-1,-1.618792862E-2
7.018623929E0,6.108652451E-4,-1.937969923E-1,-5.283984542E-2
7.028623929E0,-3.130684420E-2,-3.161227703E-1,-6.627888232E-2
7.038623929E0,-8.536841720E-2,-4.430300295E-1,-6.032294407E-2
7.048623929E0,-1.548543423E-1,-4.644103050E-1,-5.955936015E-2
7.058623929E0,-2.359467000E-1,-3.620903790E-1,-4.795292020E-2
7.068623929E0,-3.297145069E-1,-2.751947939E-1,2.092213556E-2
7.078623929E0,-3.436116874E-1,-1.455386430E-1,1.221730490E-3
7.088623929E0,-3.759875596E-1,1.320996135E-1,-1.137736514E-1
7.098623929E0,-2.953533530E-1,5.742133409E-2,-2.107485086E-1
7.108623929E0,-8.735372871E-2,-3.341432810E-1,-2.713768780E-1
7.118623929E0,1.296561509E-1,-5.768095255E-1,-3.039054573E-1
7.128623929E0,2.878702581E-1,-5.876523852E-1,-3.323107064E-1
7.138623929E0,4.135557711E-1,-4.975497425E-1,-3.584251702E-1
7.148623929E0,4.091269970E-1,-4.320344329E-1,-3.805690408E-1
7.158623929E0,3.570507467E-1,-3.796527386E-1,-3.894265890E-1
7.168623929E0,3.156646192E-1,-3.320052624E-1,-3.604104817E-1
7.178623929E0,2.267837226E-1,-2.380847335E-1,-2.831360400E-1
7.188623929E0,1.411098689E-1,-1.658499092E-1,-1.472185254E-1
7.198623929E0,5.742133409E-2,-1.808161139E-1,1.069014193E-3
7.208623929E0,1.817324013E-2,-1.792889535E-1,7.635815442E-2
7.218623929E0,-1.527163084E-3,-1.426370293E-1,1.298088580E-1
7.228623929E0,-8.704829961E-3,-5.177082866E-2,1.577559561E-1
7.238623929E0,7.483099122E-3,5.726861581E-2,1.650863290E-1
7.248623929E0,8.002334833E-2,2.167044431E-1,1.444696337E-1
7.258623929E0,1.731802970E-1,3.239113092E-1,1.023199260E-1
7.268623929E0,2.623666227E-1,3.767511547E-1,6.123924255E-2
7.278623929E0,3.316998184E-1,3.677408695E-1,4.459316283E-2
7.288623929E0,4.178318381E-1,3.078760803E-1,5.253441259E-2
7.298623929E0,4.975497425E-1,2.249511331E-1,7.620543987E-2
7.308623929E0,5.652030706E-1,1.336267740E-1,9.865473956E-2
7.318623929E0,6.001750827E-1,9.712757170E-2,1.317941695E-1
7.328623929E0,5.910121202E-1,6.444628537E-2,1.976149082E-1
7.338623929E0,5.690209866E-1,5.375614017E-2,2.241875380E-1
7.348623929E0,5.604688525E-1,6.352998316E-2,2.217440903E-1
7.358623929E0,5.424483418E-1,9.880745411E-2,2.093740702E-1
7.368623929E0,5.025894046E-1,1.595885456E-1,2.017382532E-1
7.378623929E0,4.531092942E-1,2.325869352E-1,1.855503172E-1
7.388623929E0,3.975205719E-1,2.741257846E-1,1.548543423E-1
7.398623929E0,3.103195429E-1,2.939788997E-1,1.165225431E-1
7.408623929E0,2.254092693E-1,2.787072659E-1,6.734789163E-2
7.418623929E0,1.427897513E-1,2.525927722E-1,4.245513305E-2
7.428623929E0,8.689557761E-2,2.263255715E-1,3.359758854E-2
7.438623929E0,1.634064503E-2,1.951714456E-1,1.985312067E-2
7.448623929E0,-4.703662544E-2,1.313360333E-1,-1.069014193E-3
7.458623929E0,-9.224065393E-2,3.588833287E-2,-3.420845419E-2
7.468623929E0,-1.252273768E-1,-4.886921868E-2,-6.719517708E-2
7.478623929E0,-1.557706445E-1,-1.408044398E-1,-9.285151958E-2
7.488623929E0,-1.740965992E-1,-1.988366395E-1,-1.134682223E-1
7.498623929E0,-1.788308024E-1,-2.000583708E-1,-1.317941695E-1
7.508623929E0,-1.713477075E-1,-1.504255682E-1,-1.464549452E-1
7.518623929E0,-1.513418704E-1,-5.253441259E-2,-1.611157060E-1
7.528623929E0,-1.302670091E-1,7.345654815E-2,-1.611157060E-1
7.538623929E0,-1.177442744E-1,1.606575549E-1,-1.598939747E-1
7.548623929E0,-1.065959856E-1,2.199114859E-1,-1.574505121E-1
7.558623929E0,-9.315694869E-2,2.270891517E-1,-1.574505121E-1
7.568623929E0,-7.880161703E-2,1.966986060E-1,-1.438587606E-1
7.578623929E0,-5.482515693E-2,1.469130963E-1,-1.059851199E-1
7.588623929E0,-1.191187184E-2,1.588249579E-2,-4.948008433E-2
7.598623929E0,2.962696366E-2,-1.745547503E-1,-2.107485011E-2
7.608623929E0,5.711590126E-2,-3.092505336E-1,-2.199114859E-2
7.618623929E0,8.964447677E-2,-4.259257913E-1,-5.207626149E-2
7.628623929E0,1.395827085E-1,-4.978551865E-1,-1.053742543E-1
7.638623929E0,1.982257664E-1,-4.897612035E-1,-1.391245574E-1
7.648623929E0,2.218967974E-1,-3.445279896E-1,-1.427897513E-1
7.658623929E0,2.704605758E-1,-1.218676195E-1,-1.878410578E-1
7.668623929E0,3.926336467E-1,1.162171140E-1,-1.266018152E-1
7.678623929E0,4.482223690E-1,2.930625975E-1,4.535674304E-2
7.688623929E0,3.582724631E-1,2.260201424E-1,1.985312104E-1
7.698623929E0,1.899790913E-1,-4.276056774E-3,3.245221674E-1
7.708623929E0,-1.970040426E-2,-1.798998117E-1,2.832887471E-1
7.718623929E0,-1.705841124E-1,-2.661845386E-1,2.509129047E-1
7.728623929E0,-2.527455091E-1,-3.759875596E-1,3.054326177E-1
7.738623929E0,-2.124283910E-1,-5.713117123E-1,3.448334336E-1
7.748623929E0,-1.252273768E-1,-7.197519541E-1,3.150537610E-1
7.758623929E0,-8.597928286E-2,-7.151705027E-1,2.591595948E-1
7.768623929E0,-6.154467165E-2,-5.155702829E-1,1.676825136E-1
7.778623929E0,-5.635231733E-2,-2.309070677E-1,8.093964309E-2
7.788623929E0,-5.360342562E-2,1.740965992E-2,-1.191187184E-2
7.798623929E0,-6.475171447E-2,1.664607823E-1,-8.170322329E-2
7.808623929E0,-8.949175477E-2,2.513710558E-1,-1.403462887E-1
7.818623929E0,-1.149953827E-1,2.394591719E-1,-1.563815027E-1
7.828623929E0,-1.553124934E-1,2.118175179E-1,-1.553124934E-1
7.838623929E0,-2.076941878E-1,2.084577680E-1,-1.385136992E-1
7.848623929E0,-2.689334154E-1,1.823432744E-1,-7.437284291E-2
7.858623929E0,-3.121521473E-1,1.221730486E-1,-1.481348183E-2
7.868623929E0,-3.648392558E-1,5.467243865E-2,5.803219974E-3
7.878623929E0,-4.416555762E-1,-1.527163107E-2,-8.093964309E-3
7.888623929E0,-5.131267905E-1,-6.459899992E-2,-6.322455406E-2
7.898623929E0,-5.393940210E-1,-5.360342562E-2,-1.340849251E-1
7.908623929E0,-5.630650520E-1,1.069014193E-3,-2.073887438E-1
7.918623929E0,-5.748242140E-1,4.459316283E-2,-2.599231601E-1
7.928623929E0,-5.736024380E-1,5.803219974E-2,-2.428189367E-1
7.938623929E0,-5.737552047E-1,7.864890248E-2,-2.014328092E-1
7.948623929E0,-5.677992702E-1,1.149953827E-1,-1.733330190E-1
7.958623929E0,-5.506950021E-1,1.719585657E-1,-1.307251602E-1
7.968623929E0,-5.351179838E-1,2.058615834E-1,-7.467827946E-2
7.978623929E0,-5.148066878E-1,2.034181207E-1,-2.092213556E-2
7.988623929E0,-4.752531648E-1,1.765400618E-1,4.153883830E-2
7.998623929E0,-4.208861589E-1,1.592831165E-1,8.689557761E-2
8.008623929E0,-3.674354553E-1,1.528690308E-1,1.091921628E-1
8.018623929E0,-3.248275816E-1,1.623374373E-1,1.056796908E-1
8.028623929E0,-2.638937831E-1,1.765400618E-1,9.514226019E-2
8.038623929E0,-2.006692290E-1,1.724167168E-1,8.567385375E-2
8.048623929E0,-1.400408596E-1,1.356120855E-1,8.124507964E-2
8.058623929E0,-9.865473956E-2,1.111774743E-1,8.032877743E-2
8.068623929E0,-7.070764899E-2,1.171334088E-1,8.048149943E-2
8.078623929E0,-5.864306539E-2,1.437060535E-1,9.636399150E-2
8.088623929E0,-5.619960278E-2,1.594358236E-1,1.194241568E-1
8.098623929E0,-6.612616032E-2,1.620320082E-1,1.547016203E-1
8.108623929E0,-9.560041130E-2,1.646281779E-1,1.899790913E-1
8.118623929E0,-1.308778822E-1,1.879937798E-1,2.238821089E-1
8.128623929E0,-1.382082552E-1,2.073887438E-1,2.396118939E-1
8.138623929E0,-9.957103431E-2,1.853975952E-1,2.544253767E-1
8.148623929E0,-1.343903504E-2,1.266018152E-1,2.562579811E-1
8.158623929E0,8.048149943E-2,8.109235764E-2,1.934915632E-1
8.168623929E0,1.319468915E-1,6.734789163E-2,1.157589629E-1
8.178623929E0,1.285871267E-1,3.695734590E-2,3.649919853E-2
8.188623929E0,8.017606288E-2,-3.680463135E-2,-3.313944116E-2
8.198623929E0,2.397646010E-2,-1.806633919E-1,-7.345654815E-2
8.208623929E0,-2.412917651E-2,-3.318525553E-1,-7.712173462E-2
8.218623929E0,-9.056077152E-2,-5.096143484E-1,-6.154467165E-2
8.228623929E0,-1.760819107E-1,-5.490151644E-1,-2.290744707E-2
8.238623929E0,-2.672535479E-1,-4.816672504E-1,1.298088674E-2
8.248623929E0,-3.697261810E-1,-4.457789063E-1,9.285151958E-2
8.258623929E0,-4.468479156E-1,-2.634356320E-1,9.101892263E-2
8.268623929E0,-5.464189649E-1,1.513418704E-1,-6.734789163E-2
8.278623929E0,-5.145012736E-1,2.721404731E-1,-2.269364446E-1
8.288623929E0,-2.958115041E-1,1.033889428E-1,-3.071125150E-1
8.298623929E0,-2.183843218E-2,-1.346957833E-1,-3.077233732E-1
8.308623929E0,2.281581759E-1,-2.211332172E-1,-2.842050493E-1
8.318623929E0,3.449861407E-1,-2.086104751E-1,-2.933680415E-1
8.328623929E0,3.976732790E-1,-1.774563491E-1,-3.431535661E-1
8.338623929E0,4.442517459E-1,-1.777617931E-1,-3.891211748E-1
8.348623929E0,4.586070776E-1,-1.705841124E-1,-3.646865487E-1
8.358623929E0,4.497495294E-1,-1.522581577E-1,-2.929098904E-1
8.368623929E0,4.334088862E-1,-1.435533315E-1,-1.942551434E-1
8.378623929E0,4.095851481E-1,-1.553124934E-1,-9.086620808E-2
8.388623929E0,3.883575797E-1,-1.708895564E-1,-1.404990070E-2
8.398623929E0,3.417791128E-1,-1.643227488E-1,5.864306539E-2
8.408623929E0,2.725986242E-1,-6.688974798E-2,9.957103431E-2
8.418623929E0,2.073887438E-1,9.239336848E-2,1.258382350E-1
8.428623929E0,1.786780804E-1,2.428189367E-1,1.279762685E-1
8.438623929E0,1.661553532E-1,4.247040749E-1,1.046106741E-1
8.448623929E0,1.765400618E-1,5.627595782E-1,9.346238524E-2
8.458623929E0,2.084577680E-1,6.255260110E-1,9.361509979E-2
8.468623929E0,2.800817192E-1,6.444628239E-1,1.049161032E-1
8.478623929E0,3.820962012E-1,6.038402915E-1,1.043052375E-1
8.488623929E0,5.083925724E-1,5.267185569E-1,1.015563458E-1
8.498623929E0,5.931501389E-1,4.776966274E-1,1.178969890E-1
8.508623929E0,6.378960609E-1,4.361577928E-1,1.363756657E-1
8.518623929E0,6.719517708E-1,4.202753007E-1,1.232420653E-1
8.528623929E0,6.717990637E-1,4.166100919E-1,1.379028261E-1
8.538623929E0,6.436992288E-1,4.167627990E-1,1.632537395E-1
8.548623929E0,6.110179424E-1,4.424191415E-1,1.667662114E-1
8.558623929E0,5.648976564E-1,4.560109079E-1,1.434006095E-1
8.568623929E0,5.030475259E-1,4.236350358E-1,1.113301888E-1
8.578623929E0,4.604396820E-1,4.045455158E-1,8.918632567E-2
8.588623929E0,3.973678350E-1,3.866777122E-1,6.933320314E-2
8.598623929E0,3.353650272E-1,3.604104817E-1,5.436700583E-2
8.608623929E0,2.829833329E-1,3.510948122E-1,4.444044828E-2
8.618623929E0,2.112066597E-1,3.297145069E-1,3.420845419E-2
8.628623929E0,1.430951804E-1,2.732094824E-1,1.802052557E-2
8.638623929E0,9.056077152E-2,1.873829067E-1,5.650503561E-3
8.648623929E0,6.963863969E-2,1.209513173E-1,-7.788531948E-3
8.658623929E0,5.986479297E-2,6.643159688E-2,-2.596177347E-2
8.668623929E0,5.253441259E-2,2.031126991E-2,-5.161811411E-2
8.678623929E0,5.131268129E-2,-1.481348183E-2,-8.445212245E-2
8.688623929E0,4.902193695E-2,-4.153883830E-2,-1.099557430E-1
8.698623929E0,3.329215571E-2,-5.604688451E-2,-1.333213449E-1
8.708623929E0,1.160643995E-2,-6.078109145E-2,-1.614211351E-1
8.718623929E0,-1.832595794E-3,-6.185010448E-2,-1.687515229E-1
8.728623929E0,-1.023199316E-2,-5.818491429E-2,-1.821905524E-1
8.738623929E0,-1.252273750E-2,-4.245513305E-2,-1.882992089E-1
8.748623929E0,-1.527163084E-3,-1.588249579E-2,-1.809688359E-1
8.758623929E0,1.664607786E-2,-1.359175146E-2,-1.675297916E-1
8.768623929E0,5.635231733E-2,-6.948592514E-2,-1.379028261E-1
8.778623929E0,1.139263660E-1,-1.982257664E-1,-9.117163718E-2
8.788623929E0,1.495092660E-1,-3.863722682E-1,-6.398813426E-2
8.798623929E0,1.623374373E-1,-5.258022547E-1,-5.390885845E-2
8.808623929E0,1.389718503E-1,-5.316054821E-1,-9.010262787E-3
8.818623929E0,8.613199741E-2,-2.828305960E-1,2.214386500E-2
8.828623929E0,5.115996301E-2,-2.443460934E-2,-5.146539584E-2
8.838623929E0,1.359175146E-2,3.466660380E-1,-4.001167417E-2
8.848623929E0,-8.017606288E-2,5.134322643E-1,8.109235764E-2
8.858623929E0,-2.327396572E-1,2.333505303E-1,2.012801021E-1
8.868623929E0,-3.587306142E-1,-1.522581577E-1,2.777909636E-1
8.878623929E0,-5.331326723E-1,-5.511531830E-1,2.918408811E-1
8.888623929E0,-6.589708924E-1,-7.782423496E-1,2.634356320E-1
8.898623929E0,-6.310238242E-1,-8.232936263E-1,2.185370475E-1
8.908623929E0,-5.041165352E-1,-8.107708693E-1,1.777617931E-1
8.918623929E0,-2.437352389E-1,-8.064948320E-1,1.342376322E-1
8.928623929E0,1.527163113E-4,-7.257078886E-1,8.674286306E-2
8.938623929E0,1.411098689E-1,-5.024366379E-1,3.604105115E-2
8.948623929E0,2.365575731E-1,-1.504255682E-1,-2.107485011E-2
8.958623929E0,2.455678284E-1,1.887573600E-1,-9.086620808E-2
8.968623929E0,1.689042449E-1,3.915646076E-1,-1.488984078E-1
8.978623929E0,7.086037099E-2,4.987714589E-1,-1.605048478E-1
8.988623929E0,-1.006400511E-1,5.216789246E-1,-1.444696337E-1
8.998623929E0,-3.090978265E-1,4.528038502E-1,-1.078177169E-1
9.008623929E0,-4.873177409E-1,3.462078869E-1,-6.230825558E-2
9.018623929E0,-5.949827433E-1,2.487748712E-1,-4.276056774E-3
9.028623929E0,-7.028004527E-1,1.259909570E-1,4.886921868E-2
9.038623929E0,-7.568620443E-1,2.321287990E-2,5.833763257E-2
9.048623929E0,-7.751879692E-1,-6.032294407E-2,3.527746722E-2
9.058623929E0,-7.667886019E-1,-1.209513173E-1,0.000000000E0
9.068623929E0,-7.043276429E-1,-1.203404516E-1,-6.414084882E-2
9.078623929E0,-6.310238242E-1,-7.712173462E-2,-9.911288321E-2
9.088623929E0,-5.722280145E-1,-3.145955876E-2,-1.317941695E-1
9.098623929E0,-4.987714589E-1,3.695734590E-2,-1.631010175E-1
9.108623929E0,-4.376849532E-1,1.081231460E-1,-1.592831165E-1
9.118623929E0,-3.903428912E-1,1.745547503E-1,-1.224784851E-1
9.128623929E0,-3.599523604E-1,2.023491114E-1,-8.704829961E-2
9.138623929E0,-3.251330256E-1,1.693623960E-1,-4.169155285E-2
9.148623929E0,-2.939788997E-1,1.122464910E-1,6.108652335E-3
9.158623929E0,-2.822197378E-1,6.383541971E-2,4.153883830E-2
9.168623929E0,-2.678644061E-1,5.894849449E-2,5.986479297E-2
9.178623929E0,-2.533563673E-1,6.246097013E-2,8.918632567E-2
9.188623929E0,-2.304489166E-1,6.352998316E-2,1.101084575E-1
9.198623929E0,-2.025018334E-1,5.971207842E-2,1.175915599E-1
9.208623929E0,-1.624901593E-1,4.016438872E-2,1.153008118E-1
9.218623929E0,-1.090394482E-1,1.435533352E-2,1.192714423E-1
9.228623929E0,-6.062837690E-2,-1.023199316E-2,1.244637966E-1
9.238623929E0,-2.046398632E-2,-2.626720630E-2,1.259909570E-1
9.248623929E0,2.199114859E-2,-2.886338346E-2,1.322523206E-1
9.258623929E0,3.665191308E-2,-1.206458826E-2,1.421788931E-1
9.268623929E0,3.298672289E-2,1.221730467E-2,1.493565589E-1
9.278623929E0,2.092213556E-2,3.176499158E-2,1.518000066E-1
9.288623929E0,7.635815535E-3,6.093380973E-2,1.565342247E-1
9.298623929E0,-6.872233935E-3,9.621127695E-2,1.527163088E-1
9.308623929E0,-1.756237634E-2,1.374446750E-1,1.537853181E-1
9.318623929E0,-2.977968007E-2,1.339322031E-1,1.501201391E-1
9.328623929E0,-3.100141138E-2,6.108652428E-2,1.197295859E-1
9.338623929E0,-2.397646010E-2,-5.772676691E-2,7.605272532E-2
9.348623929E0,-2.672535367E-2,-1.620320082E-1,5.177082866E-2
9.358623929E0,-5.238169432E-2,-2.564106882E-1,3.588833287E-2
9.368623929E0,-9.392052889E-2,-3.071125150E-1,1.863138936E-2
9.378623929E0,-1.550070494E-1,-3.758348525E-1,1.588249579E-2
9.388623929E0,-2.209804952E-1,-4.601342380E-1,2.306016348E-2
9.398623929E0,-3.089450896E-1,-5.468770862E-1,3.237585723E-2
9.408623929E0,-4.387539625E-1,-4.891503453E-1,1.695151068E-2
9.418623929E0,-5.963571668E-1,-3.437644243E-1,3.176499158E-2
9.428623929E0,-6.986771226E-1,-3.164281845E-1,8.720101416E-2
9.438623929E0,-8.277224302E-1,-1.618792862E-2,8.613199741E-2
9.448623929E0,-8.956811428E-1,3.765984178E-1,-6.948592514E-2
9.458623929E0,-7.617489696E-1,2.556470931E-1,-1.844813079E-1
9.468623929E0,-3.836233616E-1,-2.110539377E-1,-2.657263875E-1
9.478623929E0,-4.184427112E-2,-5.794056654E-1,-3.170390725E-1
9.488623929E0,2.075414658E-1,-6.101016402E-1,-3.326161206E-1
9.498623929E0,3.820962012E-1,-4.973970354E-1,-3.707951903E-1
9.508623929E0,5.958990455E-1,-3.388774991E-1,-4.502076805E-1
9.518623929E0,7.463245988E-1,-1.605048478E-1,-4.776966274E-1
9.528623929E0,8.353582025E-1,-2.641992271E-2,-4.211915731E-1
9.538623929E0,8.639161587E-1,-1.313360315E-2,-3.174972236E-1
9.548623929E0,8.385652900E-1,-3.222314268E-2,-1.701259762E-1
9.558623929E0,7.452555895E-1,-3.985895589E-2,-1.710422710E-2
9.568623929E0,6.470590234E-1,-4.505131021E-2,1.261436790E-1
9.578623929E0,5.224425197E-1,-1.679879380E-3,2.509129047E-1
9.588623929E0,4.152356386E-1,9.605856240E-2,3.220787048E-1
9.598623929E0,3.510948122E-1,2.347249687E-1,3.617849350E-1
9.608623929E0,3.344487250E-1,3.439171314E-1,3.700316250E-1
9.618623929E0,3.546072841E-1,4.770857692E-1,3.346014321E-1
9.628623929E0,4.321871698E-1,5.830708742E-1,2.582432926E-1
9.638623929E0,5.581781268E-1,6.901249886E-1,1.918116808E-1
9.648623929E0,6.863071322E-1,7.194465399E-1,1.510364264E-1
9.658623929E0,8.810204268E-1,6.806566119E-1,1.119410545E-1
9.668623929E0,1.066876173E0,6.067419052E-1,9.728029370E-2
9.678623929E0,1.188132882E0,5.198463202E-1,9.926560521E-2
9.688623929E0,1.270141602E0,3.824016452E-1,1.035416573E-1
9.698623929E0,1.289078355E0,2.525927722E-1,1.134682223E-1
9.708623929E0,1.243721604E0,1.475239545E-1,1.169806942E-1
9.718623929E0,1.152244568E0,8.628471941E-2,1.191187203E-1
9.728623929E0,9.928087592E-1,5.085453019E-2,1.169806942E-1
9.738623929E0,8.127561808E-1,1.939497143E-2,1.111774743E-1
9.748623929E0,6.278167367E-1,-8.552113548E-3,1.052215397E-1
9.758623929E0,4.905247986E-1,-1.985312067E-2,8.613199741E-2
9.768623929E0,3.338378668E-1,-1.527163107E-2,5.360342562E-2
9.778623929E0,2.078468949E-1,1.939497143E-2,9.010262787E-3
9.788623929E0,1.279762685E-1,5.253441259E-2,-4.993823543E-2
9.798623929E0,8.949175477E-2,6.368270516E-2,-9.773843735E-2
9.808623929E0,7.498370856E-2,3.100141138E-2,-1.464549452E-1
9.818623929E0,8.353582025E-2,-3.940080851E-2,-1.841758788E-1
9.828623929E0,9.193521738E-2,-9.040805697E-2,-2.084577680E-1
9.838623929E0,1.041525230E-1,-1.256855279E-1,-2.266310006E-1
9.848623929E0,1.151480973E-1,-1.087340117E-1,-2.229658216E-1
9.858623929E0,1.250746548E-1,-3.375030309E-2,-2.168571651E-1
9.868623929E0,1.325577646E-1,2.809980139E-2,-2.046398520E-1
9.878623929E0,1.533271819E-1,8.735372871E-2,-1.765400618E-1
9.888623929E0,1.750128865E-1,8.964447677E-2,-1.472185254E-1
9.898623929E0,1.941024363E-1,3.741549700E-2,-1.287398487E-1
9.908623929E0,2.000583708E-1,3.512475174E-3,-1.201877370E-1
9.918623929E0,1.828014255E-1,-2.428189293E-2,-1.093448773E-1
9.928623929E0,1.618792862E-1,-5.803219974E-2,-8.261952549E-2
9.938623929E0,1.456913650E-1,-1.232420653E-1,-6.185010448E-2
9.948623929E0,1.366810948E-1,-2.528982162E-1,-5.681046844E-2
9.958623929E0,1.533271819E-1,-3.755294085E-1,-7.498370856E-2
9.968623929E0,1.774563491E-1,-4.714352489E-1,-1.015563458E-1
9.978623929E0,1.994474977E-1,-4.764748812E-1,-1.183551401E-1
9.988623929E0,2.147191316E-1,-2.886338234E-1,-1.123992056E-1
9.998623929E0,2.379320115E-1,-6.230825558E-2,-1.893682331E-1
1.000862393E1,2.826778889E-1,2.393064648E-1,-1.516472995E-1
1.001862393E1,2.915354371E-1,5.193881989E-1,-4.352414981E-2
1.002862393E1,1.791362315E-1,5.784893632E-1,8.613199741E-2
1.003862393E1,0.000000000E0,3.604104817E-1,2.096794993E-1
1.004862393E1,-1.785253733E-1,1.640173197E-1,2.357939780E-1
1.005862393E1,-3.596469164E-1,-1.050688252E-1,2.545780838E-1
1.006862393E1,-4.002694488E-1,-4.016439021E-1,3.362813294E-1
1.007862393E1,-3.356704414E-1,-6.565274000E-1,3.674354553E-1
1.008862393E1,-2.898555696E-1,-7.889324427E-1,3.483459055E-1
1.009862393E1,-2.579378486E-1,-8.049677014E-1,2.803871334E-1
1.010862393E1,-1.800525337E-1,-6.177374721E-1,1.818851233E-1
1.011862393E1,-1.406517178E-1,-3.491095006E-1,8.063421398E-2
1.012862393E1,-1.307251602E-1,-1.105666086E-1,-6.108652335E-3
1.013862393E1,-1.522581577E-1,1.270599663E-1,-1.003346145E-1
1.014862393E1,-2.133446932E-1,2.496911734E-1,-1.751656085E-1
1.015862393E1,-3.017674387E-1,3.107776940E-1,-1.965458989E-1
1.016862393E1,-4.100432992E-1,3.272710443E-1,-1.837177277E-1
1.017862393E1,-5.076290369E-1,3.049744666E-1,-1.354593635E-1
1.018862393E1,-5.800165534E-1,2.412917763E-1,-7.483099401E-2
1.019862393E1,-6.375905871E-1,1.872301996E-1,-3.863722831E-2
1.020862393E1,-6.878342628E-1,1.062905490E-1,-2.657263726E-2
1.021862393E1,-7.063129544E-1,1.664607786E-2,-4.734205827E-2
1.022862393E1,-6.965391040E-1,-4.886921868E-2,-8.857546002E-2
1.023862393E1,-6.869179606E-1,-8.536841720E-2,-1.079704314E-1
1.024862393E1,-6.794348955E-1,-1.023199260E-1,-1.444696337E-1
1.025862393E1,-6.740897894E-1,-4.917465150E-2,-1.835650057E-1
1.026862393E1,-6.629415154E-1,1.985312067E-2,-1.847867370E-1
1.027862393E1,-6.517932415E-1,8.643743396E-2,-1.701259762E-1
1.028862393E1,-6.285803318E-1,1.542434692E-1,-1.397354305E-1
1.029862393E1,-5.777258277E-1,1.721112877E-1,-9.437867999E-2
1.030862393E1,-5.282457471E-1,1.488984078E-1,-4.398229718E-2
1.031862393E1,-4.754058719E-1,1.075122803E-1,3.191770986E-2
1.032862393E1,-4.285219610E-1,6.246097013E-2,8.216137439E-2
1.033862393E1,-3.764457107E-1,4.153883830E-2,1.055269688E-1
1.034862393E1,-3.350595832E-1,4.612032697E-2,1.143845171E-1
1.035862393E1,-2.814561725E-1,7.849618047E-2,1.134682223E-1
1.036862393E1,-2.290744632E-1,1.133155003E-1,1.136209369E-1
1.037862393E1,-1.803579628E-1,1.177442744E-1,1.151480973E-1
1.038862393E1,-1.488984078E-1,8.735372871E-2,1.189660057E-1
1.039862393E1,-1.114829108E-1,3.985895589E-2,1.314887404E-1
1.040862393E1,-8.231408894E-2,4.566217586E-2,1.450804919E-1
1.041862393E1,-7.376197726E-2,7.834346592E-2,1.536326110E-1
1.042862393E1,-7.498370856E-2,1.123992056E-1,1.705841124E-1
1.043862393E1,-8.964447677E-2,1.137736514E-1,1.875356287E-1
1.044862393E1,-1.165225431E-1,9.453139454E-2,1.959350258E-1
1.045862393E1,-1.446223408E-1,8.613199741E-2,2.006692290E-1
1.046862393E1,-1.737911552E-1,9.361509979E-2,1.992947906E-1
1.047862393E1,-1.760819107E-1,9.728029370E-2,1.907426715E-1
1.048862393E1,-1.591303945E-1,5.955936015E-2,1.798998117E-1
1.049862393E1,-1.336267740E-1,0.000000000E0,1.582140923E-1
1.050862393E1,-9.605856240E-2,-8.628471941E-2,1.061378345E-1
1.051862393E1,-6.795875728E-2,-1.751656085E-1,3.817907721E-2
1.052862393E1,-7.024950534E-2,-2.272418737E-1,-1.664607786E-2
1.053862393E1,-1.041525230E-1,-3.023782969E-1,-8.857546002E-2
1.054862393E1,-1.554652005E-1,-4.353941977E-1,-1.253800988E-1
1.055862393E1,-2.194533348E-1,-6.143777370E-1,-1.279762685E-1
1.056862393E1,-2.852740586E-1,-6.406449080E-1,-1.246165112E-1
1.057862393E1,-4.127921760E-1,-5.076290369E-1,-6.582073122E-2
1.058862393E1,-5.094616413E-1,-4.558582008E-1,7.009678334E-2
1.059862393E1,-5.951354504E-1,-2.504547536E-1,9.010262042E-2
1.060862393E1,-6.641632318E-1,4.932736978E-2,3.573561832E-2
1.061862393E1,-5.865833759E-1,8.613199741E-2,-8.567385375E-2
1.062862393E1,-3.167336285E-1,-1.302670091E-1,-2.240348309E-1
1.063862393E1,-3.222314268E-2,-2.909245789E-1,-2.990185320E-1
1.064862393E1,1.805106848E-1,-3.420845270E-1,-3.295617998E-1
1.065862393E1,3.984368443E-1,-3.265074790E-1,-3.587306142E-1
1.066862393E1,5.071708560E-1,-3.006984293E-1,-4.141666293E-1
1.067862393E1,5.488623977E-1,-2.464841306E-1,-4.482223690E-1
1.068862393E1,5.832235813E-1,-1.557706445E-1,-4.492913783E-1
1.069862393E1,5.966626406E-1,-9.636399150E-2,-4.042400718E-1
1.070862393E1,5.997169614E-1,-9.865473956E-2,-3.115412891E-1
1.071862393E1,5.708535910E-1,-1.334740520E-1,-1.910481006E-1
1.072862393E1,4.637994468E-1,-1.615738571E-1,-5.192354787E-3
1.073862393E1,3.222314119E-1,-9.269879758E-2,1.133155003E-1
1.074862393E1,1.773036420E-1,1.679879380E-3,2.002110779E-1
1.075862393E1,7.284568250E-2,1.018617824E-1,2.603813112E-1
1.076862393E1,-2.794708498E-2,2.335032374E-1,3.121521473E-1
1.077862393E1,-7.727445662E-2,3.683517575E-1,3.178026378E-1
1.078862393E1,-7.696902007E-2,4.447098970E-1,3.017674387E-1
1.079862393E1,-4.001167417E-2,4.697553813E-1,2.470949888E-1
1.080862393E1,5.619960278E-2,4.121813178E-1,1.904372424E-1
1.081862393E1,1.849394590E-1,3.081815243E-1,1.438587606E-1
1.082862393E1,2.919935882E-1,2.251038402E-1,9.697485715E-2
1.083862393E1,4.135557711E-1,1.721112877E-1,6.963863969E-2
1.084862393E1,5.108360648E-1,1.447750628E-1,5.314527452E-2
1.085862393E1,6.042984724E-1,1.357648075E-1,5.864306539E-2
1.086862393E1,6.603453159E-1,1.499674171E-1,6.750060618E-2
1.087862393E1,6.979135275E-1,1.557706445E-1,9.453139454E-2
1.088862393E1,7.110471725E-1,1.629483104E-1,1.189660057E-1
1.089862393E1,6.696610451E-1,1.681406647E-1,1.320996135E-1
1.090862393E1,5.966626406E-1,1.783726513E-1,1.438587606E-1
1.091862393E1,5.213735104E-1,1.884519309E-1,1.446223408E-1
1.092862393E1,4.363104999E-1,2.011273801E-1,1.270599663E-1
1.093862393E1,3.623957932E-1,2.258674204E-1,9.972374886E-2
1.094862393E1,2.751947939E-1,2.663372457E-1,6.627888232E-2
1.095862393E1,2.110539377E-1,2.897028327E-1,3.313944116E-2
1.096862393E1,1.577559561E-1,2.632829249E-1,-8.552113548E-3
1.097862393E1,1.322523206E-1,2.101376504E-1,-4.398229718E-2
1.098862393E1,1.067487001E-1,1.168279797E-1,-1.001819000E-1
1.099862393E1,9.453139454E-2,3.451388702E-2,-1.403462887E-1
1.100862393E1,8.353582025E-2,-3.054326167E-3,-1.719585657E-1
1.101862393E1,8.002334833E-2,-1.527163107E-2,-1.915062517E-1
1.102862393E1,7.895433158E-2,-1.878410578E-2,-2.122756690E-1
1.103862393E1,7.559457421E-2,1.023199316E-2,-2.354885489E-1
1.104862393E1,7.086037099E-2,5.513058975E-2,-2.415972054E-1
1.105862393E1,6.261368841E-2,1.351539344E-1,-2.368630022E-1
1.106862393E1,4.581489414E-2,2.141082734E-1,-2.139555514E-1
1.107862393E1,2.260201424E-2,2.385428846E-1,-1.884519309E-1
1.108862393E1,9.010262787E-3,2.144137025E-1,-1.727221459E-1
1.109862393E1,-1.069014193E-3,1.696678251E-1,-1.421788931E-1
1.110862393E1,1.404990070E-2,7.987063378E-2,-8.720101416E-2
1.111862393E1,6.185010448E-2,-8.994990587E-2,-4.413501546E-2
1.112862393E1,1.122464910E-1,-2.539672256E-1,-4.245513305E-2
1.113862393E1,1.762346178E-1,-4.095851481E-1,-7.467827946E-2
1.114862393E1,2.347249687E-1,-4.292855561E-1,-1.096503139E-1
1.115862393E1,2.561052442E-1,-2.791654170E-1,-1.110247597E-1
1.116862393E1,2.703078687E-1,-5.146539584E-2,-1.221730486E-1
1.117862393E1,3.474296033E-1,1.530217379E-1,-7.070764899E-2
1.118862393E1,3.924809098E-1,3.891211748E-1,6.078109145E-2
1.119862393E1,2.785545588E-1,3.465133011E-1,1.650863290E-1
1.120862393E1,7.803803682E-2,-2.779436857E-2,3.094032407E-1
1.121862393E1,-1.229366288E-1,-3.561344445E-1,3.524692357E-1
1.122862393E1,-3.118467033E-1,-5.378668308E-1,3.223841190E-1
1.123862393E1,-3.827070892E-1,-6.308710575E-1,3.147483170E-1
1.124862393E1,-3.807217777E-1,-7.544185519E-1,2.977968156E-1
1.125862393E1,-2.883284092E-1,-8.509352803E-1,2.460259795E-1
1.126862393E1,-1.653917581E-1,-8.723155856E-1,2.054034323E-1
1.127862393E1,-3.084869497E-2,-8.078693151E-1,1.340849251E-1
1.128862393E1,5.085453019E-2,-6.012440920E-1,3.207042441E-2
1.129862393E1,9.498954564E-2,-3.556762934E-1,-6.551529467E-2
1.130862393E1,1.069014147E-1,-1.485929638E-1,-1.072068512E-1
1.131862393E1,5.696318299E-2,6.734789163E-2,-1.514945775E-1
1.132862393E1,-6.994406879E-2,2.063197345E-1,-1.889100820E-1
1.133862393E1,-2.315179259E-1,2.741257846E-1,-1.728748679E-1
1.134862393E1,-3.425426781E-1,2.397646159E-1,-1.235474944E-1
1.135862393E1,-4.540255964E-1,1.641700417E-1,-3.634648025E-2
1.136862393E1,-5.155702829E-1,1.186605766E-1,4.016438872E-2
1.137862393E1,-5.450445414E-1,6.795875728E-2,6.444628537E-2
1.138862393E1,-5.500841737E-1,1.374446787E-3,4.382958263E-2
1.139862393E1,-5.352706909E-1,-4.123340547E-2,-1.343903504E-2
1.140862393E1,-5.167919993E-1,-7.422012836E-2,-6.933320314E-2
1.141862393E1,-5.019785166E-1,-9.376781434E-2,-1.264491081E-1
1.142862393E1,-4.781547785E-1,-8.078692853E-2,-2.251038402E-1
1.143862393E1,-4.712825418E-1,-3.252857551E-2,-3.200933933E-1
1.144862393E1,-4.732678533E-1,1.359175146E-2,-3.591887653E-1
1.145862393E1,-4.853324294E-1,7.544185966E-2,-3.422372639E-1
1.146862393E1,-4.877758920E-1,1.556179225E-1,-2.948952019E-1
1.147862393E1,-4.807509482E-1,1.944078654E-1,-2.217440903E-1
1.148862393E1,-4.801400900E-1,1.800525337E-1,-1.290452778E-1
1.149862393E1,-4.868595898E-1,1.618792862E-1,-5.726861581E-2
1.150862393E1,-4.838052690E-1,1.183551401E-1,2.199114859E-2
1.151862393E1,-4.673119187E-1,8.200865984E-2,7.330382615E-2
1.152862393E1,-4.503603876E-1,7.345654815E-2,9.300423414E-2
1.153862393E1,-4.150829315E-1,8.903361112E-2,1.004873365E-1
1.154862393E1,-3.698789179E-1,1.177442744E-1,8.964447677E-2
1.155862393E1,-3.162754774E-1,1.246165112E-1,7.177666575E-2
1.156862393E1,-2.724458873E-1,1.085812971E-1,5.375614017E-2
1.157862393E1,-2.286163121E-1,8.048149943E-2,3.817907721E-2
1.158862393E1,-2.057088763E-1,5.604688451E-2,3.466660157E-2
1.159862393E1,-1.887573600E-1,4.505131021E-2,4.581489414E-2
1.160862393E1,-1.803579628E-1,5.115996301E-2,6.536258012E-2
1.161862393E1,-1.841758788E-1,7.544185966E-2,1.078177169E-1
1.162862393E1,-1.904372424E-1,1.082758680E-1,1.565342247E-1
1.163862393E1,-1.905899495E-1,1.337794960E-1,2.015855312E-1
1.164862393E1,-1.870774776E-1,1.652390510E-1,2.331978083E-1
1.165862393E1,-1.637118906E-1,2.003637999E-1,2.284636050E-1
1.166862393E1,-1.247692257E-1,1.902845204E-1,2.116648108E-1
1.167862393E1,-7.620543987E-2,1.426370293E-1,1.876883507E-1
1.168862393E1,-9.315694682E-3,5.131268129E-2,1.404990107E-1
1.169862393E1,2.229658142E-2,-7.742717117E-2,6.291911751E-2
1.170862393E1,1.359175146E-2,-2.156354338E-1,-5.192354787E-3
1.171862393E1,-1.328631863E-2,-3.355177343E-1,-5.390885845E-2
1.172862393E1,-5.497787148E-2,-4.831944108E-1,-8.811730891E-2
1.173862393E1,-9.682214260E-2,-6.029239893E-1,-9.437867999E-2
1.174862393E1,-1.237002090E-1,-6.440047026E-1,-8.827003092E-2
1.175862393E1,-1.915062517E-1,-5.077817440E-1,-5.726861581E-2
1.176862393E1,-3.084869385E-1,-4.415028691E-1,1.878410578E-2
1.177862393E1,-3.946189582E-1,-3.378084898E-1,4.993823543E-2
1.178862393E1,-4.854851663E-1,-2.947424725E-2,5.192354787E-3
1.179862393E1,-5.497786999E-1,1.937969923E-1,-7.345654815E-2
1.180862393E1,-4.408919811E-1,-3.604105115E-2,-1.359175146E-1
1.181862393E1,-2.223549485E-1,-2.629774809E-1,-2.063197345E-1
1.182862393E1,-3.298672289E-2,-3.697261810E-1,-2.393064648E-1
1.183862393E1,1.566869318E-1,-4.218024611E-1,-2.539672256E-1
1.184862393E1,2.664899528E-1,-4.068362415E-1,-3.130684495E-1
1.185862393E1,3.594942093E-1,-3.686571717E-1,-3.698789179E-1
1.186862393E1,4.205807149E-1,-2.927571833E-1,-3.805690408E-1
1.187862393E1,4.718934000E-1,-1.695151031E-1,-3.475823104E-1
1.188862393E1,5.045747161E-1,-1.125519201E-1,-2.730567753E-1
1.189862393E1,4.917465150E-1,-1.014036313E-1,-1.768454909E-1
1.190862393E1,4.193589985E-1,-3.527746722E-2,-2.382374369E-2
1.191862393E1,2.974913716E-1,7.712173462E-2,8.628471941E-2
1.192862393E1,1.915062517E-1,1.882992089E-1,2.000583708E-1
1.193862393E1,8.323039114E-2,2.860376537E-1,2.675589919E-1
1.194862393E1,-1.145372353E-2,4.005748928E-1,3.144428730E-1
1.195862393E1,-4.932736978E-2,4.518875778E-1,3.591887653E-1
1.196862393E1,-4.841107130E-2,4.130976200E-1,3.933972120E-1
1.197862393E1,-7.330383174E-3,3.376557529E-1,3.937026560E-1
1.198862393E1,9.193521738E-2,1.963931769E-1,3.639229834E-1
1.199862393E1,2.414444834E-1,7.544185966E-2,2.930625975E-1
1.200862393E1,3.706424832E-1,2.474004216E-2,2.341141105E-1
1.201862393E1,5.242751241E-1,2.977968007E-2,1.679879427E-1
1.202862393E1,6.597344875E-1,8.216137439E-2,1.284344196E-1
1.203862393E1,7.560984492E-1,1.530217379E-1,1.142318025E-1
1.204862393E1,8.023715019E-1,1.647808999E-1,1.206458881E-1
1.205862393E1,8.231409192E-1,1.682933718E-1,1.012509167E-1
1.206862393E1,8.084801435E-1,1.490511149E-1,9.636399150E-2
1.207862393E1,7.368562222E-1,1.470658034E-1,8.124507964E-2
1.208862393E1,6.652322412E-1,1.559233516E-1,6.994406879E-2
1.209862393E1,5.619960427E-1,1.808161139E-1,6.444628537E-2
1.210862393E1,4.502076805E-1,2.093740702E-1,5.772676691E-2
1.211862393E1,3.665191531E-1,2.147191316E-1,3.772092983E-2
1.212862393E1,2.826778889E-1,1.947132945E-1,-1.679879380E-3
1.213862393E1,2.183843255E-1,1.368338168E-1,-5.192354694E-2
1.214862393E1,1.600466967E-1,6.688974798E-2,-1.143845171E-1
1.215862393E1,1.139263660E-1,5.192354787E-3,-1.597412676E-1
1.216862393E1,7.147123665E-2,-3.817907721E-2,-1.963931769E-1
1.217862393E1,4.123340547E-2,-4.413501546E-2,-2.270891517E-1
1.218862393E1,3.420845419E-2,-2.901609987E-3,-2.527455091E-1
1.219862393E1,3.695734590E-2,6.612616032E-2,-2.637410760E-1
1.220862393E1,3.023782931E-2,1.837177277E-1,-2.724458873E-1
1.221862393E1,1.237002108E-2,3.026837409E-1,-2.641992271E-1
1.222862393E1,-2.138028387E-3,3.634648323E-1,-2.386955917E-1
1.223862393E1,6.108652335E-3,3.500257730E-1,-2.032654136E-1
1.224862393E1,2.855795063E-2,2.675589919E-1,-1.556179225E-1
1.225862393E1,5.711590126E-2,1.608102769E-1,-1.090394482E-1
1.226862393E1,8.323039114E-2,5.772676691E-2,-6.856962293E-2
1.227862393E1,1.308778822E-1,-1.085812971E-1,-3.023782931E-2
1.228862393E1,1.908953935E-1,-3.016147017E-1,-1.756237634E-2
1.229862393E1,2.524400651E-1,-4.476115108E-1,-3.649919853E-2
1.230862393E1,3.071125150E-1,-5.122104883E-1,-7.269296050E-2
1.231862393E1,3.791945875E-1,-5.236642361E-1,-1.209513173E-1
1.232862393E1,4.309654236E-1,-3.567453027E-1,-1.221730486E-1
1.233862393E1,4.492913783E-1,-1.133155003E-1,-1.844813079E-1
1.234862393E1,5.070181489E-1,5.971207842E-2,-1.806633919E-1
1.235862393E1,5.969680548E-1,3.113885522E-1,-2.321287990E-2
1.236862393E1,4.699080884E-1,4.045455158E-1,1.356120855E-1
1.237862393E1,3.133738637E-1,2.759583890E-1,2.115120888E-1
1.238862393E1,1.156062484E-1,1.088867337E-1,2.277000248E-1
1.239862393E1,-8.216137439E-2,-5.711590126E-2,2.524400651E-1
1.240862393E1,-2.026545405E-1,-2.732094824E-1,3.275764883E-1
1.241862393E1,-2.147191316E-1,-4.948008358E-1,3.544545472E-1
1.242862393E1,-2.046398520E-1,-7.446447611E-1,3.475823104E-1
1.243862393E1,-2.386955917E-1,-8.026769161E-1,3.072652221E-1
1.244862393E1,-2.605340183E-1,-6.536257863E-1,2.083050460E-1
1.245862393E1,-2.544253767E-1,-4.682282209E-1,1.264491081E-1
1.246862393E1,-2.165517360E-1,-2.602286041E-1,2.886338346E-2
1.247862393E1,-1.569923609E-1,-1.128573567E-1,-7.086037099E-2
1.248862393E1,-1.137736514E-1,-1.145372353E-2,-1.243110746E-1
1.249862393E1,-1.470658034E-1,7.467827946E-2,-1.818851233E-1
1.250862393E1,-1.721112877E-1,1.742493063E-1,-2.017382532E-1
1.251862393E1,-2.011273801E-1,2.629774809E-1,-1.837177277E-1
1.252862393E1,-2.376265824E-1,3.335324228E-1,-1.291979998E-1
1.253862393E1,-2.912299931E-1,3.860668242E-1,-8.811730891E-2
1.254862393E1,-3.520110846E-1,3.718642294E-1,-9.330966324E-2
1.255862393E1,-4.288274050E-1,3.081815243E-1,-1.009454802E-1
1.256862393E1,-4.787656367E-1,2.393064648E-1,-1.243110746E-1
1.257862393E1,-5.247332454E-1,1.922698319E-1,-1.878410578E-1
1.258862393E1,-5.429064631E-1,1.838704348E-1,-2.026545405E-1
1.259862393E1,-5.578727126E-1,1.209513173E-1,-1.953241676E-1
1.260862393E1,-5.736024380E-1,7.742717117E-2,-2.269364446E-1
1.261862393E1,-5.844452977E-1,1.078177169E-1,-2.270891517E-1
1.262862393E1,-5.991060734E-1,1.649336219E-1,-1.711949855E-1
1.263862393E1,-6.029239893E-1,2.147191316E-1,-1.261436790E-1
1.264862393E1,-5.946773291E-1,2.390010208E-1,-7.620543987E-2
1.265862393E1,-5.694791079E-1,2.086104751E-1,-1.878410578E-2
1.266862393E1,-5.335907936E-1,1.769981980E-1,4.001167417E-2
1.267862393E1,-5.047274232E-1,1.476766765E-1,8.521570265E-2
1.268862393E1,-4.734205604E-1,1.246165112E-1,1.220203340E-1
1.269862393E1,-4.298964143E-1,1.049161032E-1,1.382082552E-1
1.270862393E1,-3.729332387E-1,8.155050874E-2,1.519527286E-1
1.271862393E1,-3.207042515E-1,6.429356337E-2,1.608102769E-1
1.272862393E1,-2.612976134E-1,5.177082866E-2,1.684460938E-1
1.273862393E1,-2.066251636E-1,5.619960278E-2,1.797471046E-1
1.274862393E1,-1.737911552E-1,7.544185966E-2,1.992947906E-1
1.275862393E1,-1.542434692E-1,1.130100712E-1,2.176207453E-1
1.276862393E1,-1.469130963E-1,1.481348276E-1,2.310597748E-1
1.277862393E1,-1.346957833E-1,1.734857261E-1,2.371684313E-1
1.278862393E1,-1.189660057E-1,1.769981980E-1,2.360994220E-1
1.279862393E1,-9.697485715E-2,1.670716405E-1,2.313652188E-1
1.280862393E1,-6.169738993E-2,1.450804919E-1,2.121229619E-1
1.281862393E1,-2.397646010E-2,1.035416573E-1,1.794416606E-1
1.282862393E1,1.603521220E-2,3.909537569E-2,1.528690308E-1
1.283862393E1,5.971207842E-2,-7.040221989E-2,1.130100712E-1
1.284862393E1,8.277224004E-2,-1.554652005E-1,6.093380973E-2
1.285862393E1,7.315111160E-2,-2.002110779E-1,1.588249579E-2
1.286862393E1,3.909537569E-2,-2.692388594E-1,-3.420845419E-2
1.287862393E1,3.665191587E-3,-3.744603992E-1,-5.619960278E-2
1.288862393E1,-4.169155285E-2,-4.590652287E-1,-5.039638281E-2
1.289862393E1,-9.621127695E-2,-3.859141171E-1,-4.948008433E-2
1.290862393E1,-2.055561543E-1,-2.530509233E-1,2.046398632E-2
1.291862393E1,-3.090978265E-1,-1.879937798E-1,9.407325089E-2
1.292862393E1,-4.308127165E-1,7.574728876E-2,8.704829961E-2
1.293862393E1,-5.369505286E-1,2.690861523E-1,5.085453019E-2
1.294862393E1,-4.929682612E-1,1.789835095E-1,-2.199114859E-2
1.295862393E1,-3.026837409E-1,-5.375614017E-2,-6.688974798E-2
1.296862393E1,-1.290452778E-1,-2.064724565E-1,-1.194241568E-1
1.297862393E1,6.643159688E-2,-3.277291954E-1,-1.498146951E-1
1.298862393E1,1.989893466E-1,-3.601050675E-1,-1.879937798E-1
1.299862393E1,2.568688393E-1,-3.315471113E-1,-2.681698501E-1
1.300862393E1,2.938261926E-1,-2.773328125E-1,-3.167336285E-1
1.301862393E1,3.269656301E-1,-1.988366395E-1,-3.300199509E-1
1.302862393E1,3.585779071E-1,-1.359175146E-1,-2.848159075E-1
1.303862393E1,3.726277947E-1,-1.298088580E-1,-1.823432744E-1
1.304862393E1,3.584251702E-1,-1.307251602E-1,-6.795875728E-2
1.305862393E1,3.019201458E-1,-7.559457421E-2,6.078109145E-2
1.306862393E1,2.240348309E-1,3.405573592E-2,1.382082552E-1
1.307862393E1,1.354593635E-1,1.765400618E-1,1.924225539E-1
1.308862393E1,6.643159688E-2,2.909245789E-1,2.186897546E-1
1.309862393E1,2.596177394E-3,4.343251884E-1,2.218967974E-1
1.310862393E1,-2.122756653E-2,5.083925724E-1,1.960877478E-1
1.311862393E1,-6.566801574E-3,5.082398653E-1,1.802052408E-1
1.312862393E1,4.321871698E-2,4.460843503E-1,1.476766765E-1
1.313862393E1,1.320996135E-1,3.848451078E-1,9.468411654E-2
1.314862393E1,2.464841306E-1,3.330742717E-1,3.695734590E-2
1.315862393E1,3.547599912E-1,2.912299931E-1,3.359758761E-3
1.316862393E1,4.934264123E-1,2.550362349E-1,-2.748893574E-2
1.317862393E1,6.088799238E-1,2.228130996E-1,-2.306016348E-2
1.318862393E1,6.937901974E-1,1.860084683E-1,-6.719517522E-3
1.319862393E1,7.432702780E-1,1.505782902E-1,1.679879427E-2
1.320862393E1,7.515169382E-1,9.712757170E-2,4.489859566E-2
1.321862393E1,7.206682563E-1,2.474004216E-2,5.940664560E-2
1.322862393E1,6.609562039E-1,-1.374446787E-2,5.299255997E-2
1.323862393E1,5.710062981E-1,-2.168571576E-2,4.031710699E-2
1.324862393E1,4.752531648E-1,2.138028294E-2,2.886338346E-2
1.325862393E1,3.672827184E-1,8.994990587E-2,1.710422710E-2
1.326862393E1,2.837468982E-1,1.255328059E-1,-5.345070735E-3
1.327862393E1,2.000583708E-1,1.514945775E-1,-3.756821156E-2
1.328862393E1,1.406517178E-1,1.324050426E-1,-7.925976813E-2
1.329862393E1,1.067487001E-1,7.192938030E-2,-1.281289905E-1
1.330862393E1,9.453139454E-2,1.389718428E-2,-1.585195363E-1
1.331862393E1,8.353582025E-2,-3.940080851E-2,-1.841758788E-1
1.332862393E1,9.330966324E-2,-5.161811411E-2,-1.962404549E-1
1.333862393E1,1.091921628E-1,-4.321871698E-2,-1.999056488E-1
1.334862393E1,1.395827085E-1,-1.924225502E-2,-1.985312104E-1
1.335862393E1,1.737911552E-1,2.412917651E-2,-1.971567571E-1
1.336862393E1,2.044871449E-1,9.911288321E-2,-1.884519309E-1
1.337862393E1,2.228130996E-1,1.426370293E-1,-1.872301996E-1
1.338862393E1,2.399173230E-1,1.643227488E-1,-1.762346178E-1
1.339862393E1,2.690861523E-1,1.666134894E-1,-1.687515229E-1
1.340862393E1,2.981022298E-1,1.313360333E-1,-1.600466967E-1
1.341862393E1,3.255911767E-1,5.115996301E-2,-1.389718503E-1
1.342862393E1,3.707951903E-1,-1.174388453E-1,-9.101892263E-2
1.343862393E1,4.233296216E-1,-3.384193480E-1,-6.979135424E-2
1.344862393E1,4.749477208E-1,-5.375614166E-1,-7.773260027E-2
1.345862393E1,5.050328374E-1,-6.430884004E-1,-8.842274547E-2
1.346862393E1,5.245805383E-1,-5.752823353E-1,-5.803219974E-2
1.347862393E1,5.451972485E-1,-3.962988257E-1,-1.385136992E-1
1.348862393E1,5.632177591E-1,-2.049452960E-1,-1.849394590E-1
1.349862393E1,5.868887901E-1,1.017090604E-1,-8.277224004E-2
1.350862393E1,4.932736754E-1,3.036000133E-1,4.077525437E-2
1.351862393E1,3.356704414E-1,2.780964077E-1,1.313360333E-1
1.352862393E1,1.832595766E-1,2.319760770E-1,1.707368344E-1
1.353862393E1,-2.519819140E-2,1.388191283E-1,1.988366395E-1
1.354862393E1,-1.055269688E-1,-3.878994286E-2,3.022255898E-1
1.355862393E1,-8.643743396E-2,-3.005456924E-1,3.817907870E-1
1.356862393E1,-4.841107130E-2,-4.970915914E-1,4.017966092E-1
1.357862393E1,-1.603521220E-2,-6.269004345E-1,4.069889784E-1
1.358862393E1,-2.779436857E-2,-5.929974318E-1,3.520110846E-1
1.359862393E1,-5.222897977E-2,-4.584543705E-1,2.725986242E-1
1.360862393E1,-7.269296050E-2,-2.512183189E-1,1.637118906E-1
1.361862393E1,-6.169738993E-2,-9.025534242E-2,6.246097013E-2
1.362862393E1,-7.284568250E-2,6.566801574E-3,-3.649919853E-2
1.363862393E1,-1.197295859E-1,6.017022580E-2,-1.062905490E-1
1.364862393E1,-2.127338201E-1,1.745547503E-1,-1.348485053E-1
1.365862393E1,-3.312416673E-1,3.159700334E-1,-1.467603743E-1
1.366862393E1,-4.222606122E-1,4.001167417E-1,-1.314887404E-1
1.367862393E1,-4.744895697E-1,4.224133193E-1,-1.036943719E-1
1.368862393E1,-5.135849714E-1,4.068362415E-1,-8.567385375E-2
1.369862393E1,-5.529857874E-1,3.307835162E-1,-7.116580009E-2
1.370862393E1,-5.810855627E-1,2.667953968E-1,-8.353582025E-2
1.371862393E1,-5.934556127E-1,1.553124934E-1,-1.284344196E-1
1.372862393E1,-5.949827433E-1,2.443460980E-3,-1.527163088E-1
1.373862393E1,-6.294966340E-1,-1.099557430E-1,-1.539380401E-1
1.374862393E1,-6.745479703E-1,-1.351539344E-1,-1.566869318E-1
1.375862393E1,-7.451028824E-1,-1.310305893E-1,-1.508837193E-1
1.376862393E1,-8.155050874E-1,-6.505715102E-2,-1.258382350E-1
1.377862393E1,-8.691084981E-1,1.649336144E-2,-8.109235764E-2
1.378862393E1,-8.739954233E-1,6.261368841E-2,-4.459316283E-2
1.379862393E1,-8.376489878E-1,7.330382615E-2,-5.497787148E-3
1.380862393E1,-7.590000629E-1,5.360342562E-2,4.367686436E-2
1.381862393E1,-6.850853562E-1,3.619376570E-2,7.834346592E-2
1.382862393E1,-5.856670737E-1,3.924809024E-2,1.093448773E-1
1.383862393E1,-4.955644310E-1,5.314527452E-2,1.232420653E-1
1.384862393E1,-4.056145251E-1,8.659014851E-2,1.298088580E-1
1.385862393E1,-3.434589803E-1,1.018617824E-1,1.276708394E-1
1.386862393E1,-2.741257846E-1,1.038470939E-1,1.232420653E-1
1.387862393E1,-2.267837226E-1,1.000291854E-1,1.295034289E-1
1.388862393E1,-2.025018334E-1,1.168279797E-1,1.455386430E-1
1.389862393E1,-2.025018334E-1,1.482875347E-1,1.649336219E-1
1.390862393E1,-2.182316035E-1,2.005165219E-1,1.843285859E-1
1.391862393E1,-2.388483137E-1,2.382374406E-1,2.012801021E-1
1.392862393E1,-2.449569702E-1,2.528982162E-1,2.218967974E-1
1.393862393E1,-2.620611787E-1,2.481640130E-1,2.339613885E-1
1.394862393E1,-2.779437006E-1,2.507601976E-1,2.448042482E-1
1.395862393E1,-2.730567753E-1,2.495384514E-1,2.423607856E-1
1.396862393E1,-2.486221492E-1,2.371684313E-1,2.145664245E-1
1.397862393E1,-2.070833147E-1,1.919644028E-1,1.612684280E-1
1.398862393E1,-1.658499092E-1,1.261436790E-1,1.165225431E-1
1.399862393E1,-1.389718503E-1,5.329799280E-2,7.162395120E-2
1.400862393E1,-1.293507218E-1,-3.283400834E-2,3.878994286E-2
1.401862393E1,-1.261436790E-1,-1.783726513E-1,7.330383174E-3
1.402862393E1,-1.424843222E-1,-3.504839242E-1,-4.734205548E-3
1.403862393E1,-1.744020283E-1,-4.205807149E-1,-1.695151068E-2
1.404862393E1,-2.154827118E-1,-3.657555580E-1,-2.458732575E-2
1.405862393E1,-3.119994104E-1,-3.686571717E-1,6.505715102E-2
1.406862393E1,-4.045455158E-1,-1.220203340E-1,4.352414981E-2
1.407862393E1,-5.073235631E-1,2.336559594E-1,-4.764748737E-2
1.408862393E1,-5.143485069E-1,1.669189334E-1,-1.316414624E-1
1.409862393E1,-2.831360400E-1,-2.188424766E-1,-1.908953935E-1
1.410862393E1,-3.436116874E-2,-4.630358517E-1,-2.696970105E-1
1.411862393E1,1.408044398E-1,-5.345070958E-1,-3.063489199E-1
1.412862393E1,3.092505336E-1,-4.508185387E-1,-3.627012372E-1
1.413862393E1,4.123340547E-1,-3.352122903E-1,-4.451680481E-1
1.414862393E1,5.140430927E-1,-2.269364446E-1,-4.922046661E-1
1.415862393E1,5.810855627E-1,-1.388191283E-1,-4.761694670E-1
1.416862393E1,6.598871946E-1,-7.254024595E-2,-3.831652105E-1
1.417862393E1,7.047857642E-1,-1.295034289E-1,-2.159408629E-1
1.418862393E1,6.963863969E-1,-1.716531366E-1,-6.108652428E-2
1.419862393E1,6.142250299E-1,-1.151480973E-1,7.605272532E-2
1.420862393E1,5.057964325E-1,-2.901609987E-3,1.886046380E-1
1.421862393E1,3.791945875E-1,1.096503139E-1,2.669481039E-1
1.422862393E1,2.930625975E-1,1.974621862E-1,2.956587672E-1
1.423862393E1,2.202169150E-1,2.681698501E-1,3.060434759E-1
1.424862393E1,1.803579628E-1,2.915354371E-1,2.875648141E-1
1.425862393E1,1.863138974E-1,2.660318017E-1,2.840523422E-1
1.426862393E1,2.290744632E-1,2.498438805E-1,2.501493096E-1
1.427862393E1,3.144428730E-1,2.347249687E-1,1.921171248E-1
1.428862393E1,4.315762818E-1,2.157881409E-1,1.380555481E-1
1.429862393E1,5.667302608E-1,2.087631971E-1,8.994990587E-2
1.430862393E1,6.763805151E-1,2.273945808E-1,6.383541971E-2
1.431862393E1,7.822129726E-1,2.194533348E-1,6.078109145E-2
1.432862393E1,8.487972617E-1,1.632537395E-1,6.368270516E-2
1.433862393E1,8.790351152E-1,1.182024255E-1,6.627888232E-2
1.434862393E1,8.617781401E-1,5.894849449E-2,6.994406879E-2
1.435862393E1,8.020660877E-1,2.168571576E-2,6.597344577E-2
1.436862393E1,6.951646209E-1,2.367102914E-2,5.436700583E-2
1.437862393E1,5.980370641E-1,5.085453019E-2,3.680463135E-2
1.438862393E1,4.900666475E-1,9.758572280E-2,2.519819140E-2
1.439862393E1,4.002694488E-1,1.043052375E-1,1.481348183E-2
1.440862393E1,3.223841190E-1,8.903361112E-2,-2.596177394E-3
1.441862393E1,2.738203406E-1,7.345654815E-2,-2.107485011E-2
1.442862393E1,2.217440903E-1,4.825835302E-2,-6.154467165E-2
1.443862393E1,1.866193265E-1,9.621127509E-3,-1.142318025E-1
1.444862393E1,1.635591686E-1,-2.901609987E-2,-1.519527286E-1
1.445862393E1,1.345430762E-1,-6.520986557E-2,-1.863138974E-1
1.446862393E1,1.224784851E-1,-7.009678334E-2,-2.083050460E-1
1.447862393E1,1.275181174E-1,-4.337143153E-2,-2.266310006E-1
1.448862393E1,1.411098689E-1,-4.734205548E-3,-2.264782935E-1
1.449862393E1,1.681406647E-1,7.742717117E-2,-2.325869352E-1
1.450862393E1,1.988366395E-1,1.609629989E-1,-2.179261744E-1
1.451862393E1,2.316706479E-1,2.092213482E-1,-1.933388561E-1
1.452862393E1,2.547308207E-1,2.163990140E-1,-1.762346178E-1
1.453862393E1,2.945897579E-1,1.543961912E-1,-1.649336219E-1
1.454862393E1,3.353650272E-1,4.260785133E-2,-1.499674171E-1
1.455862393E1,3.675881624E-1,-5.940664560E-2,-1.301143020E-1
1.456862393E1,4.218024611E-1,-1.832595766E-1,-1.174388453E-1
1.457862393E1,4.896084964E-1,-3.086396754E-1,-1.377501190E-1
1.458862393E1,5.575672388E-1,-4.169155359E-1,-1.809688359E-1
1.459862393E1,5.988006592E-1,-4.682282209E-1,-2.136501223E-1
1.460862393E1,6.162103415E-1,-3.955352604E-1,-2.234239578E-1
1.461862393E1,5.745187402E-1,-1.287398487E-1,-1.947132945E-1
1.462862393E1,5.803219676E-1,8.582656831E-2,-2.034181207E-1
1.463862393E1,6.516404748E-1,1.994474977E-1,-6.185010448E-2
1.464862393E1,6.203336716E-1,3.223841190E-1,1.377501190E-1
1.465862393E1,4.219551682E-1,1.601994038E-1,2.587014437E-1
1.466862393E1,2.168571651E-1,-6.750060618E-2,2.638937831E-1
1.467862393E1,5.329799280E-2,-2.119702399E-1,2.753475010E-1
1.468862393E1,-1.159116775E-1,-4.202753007E-1,3.707951903E-1
1.469862393E1,-1.864666194E-1,-6.064364910E-1,4.474588037E-1
1.470862393E1,-2.015855312E-1,-7.312057018E-1,4.413501322E-1
1.471862393E1,-2.354885489E-1,-7.843509912E-1,3.937026560E-1
1.472862393E1,-2.501493096E-1,-6.256787181E-1,2.996293902E-1
1.473862393E1,-2.570215464E-1,-3.784310222E-1,1.896736622E-1
1.474862393E1,-2.603813112E-1,-1.664607823E-1,9.315694869E-2
1.475862393E1,-2.929098904E-1,4.199698567E-2,-2.672535367E-2
1.476862393E1,-3.514002264E-1,1.391245574E-1,-1.441642046E-1
1.477862393E1,-4.127921760E-1,1.696678251E-1,-2.176207453E-1
1.478862393E1,-4.686863720E-1,1.409571618E-1,-2.374738604E-1
1.479862393E1,-5.311473012E-1,9.651670605E-2,-1.999056488E-1
1.480862393E1,-6.191119552E-1,6.566801667E-2,-1.553124934E-1
1.481862393E1,-7.373143435E-1,4.825835302E-2,-1.291979998E-1
1.482862393E1,-8.600982428E-1,-7.941247895E-3,-1.553124934E-1
1.483862393E1,-8.953757286E-1,-3.924809024E-2,-1.860084683E-1
1.484862393E1,-8.958339095E-1,-1.033889428E-1,-1.615738571E-1
1.485862393E1,-8.897252083E-1,-1.386664063E-1,-1.687515229E-1
1.486862393E1,-8.773552179E-1,-1.363756657E-1,-2.101376504E-1
1.487862393E1,-8.575021029E-1,-6.612616032E-2,-2.223549485E-1
1.488862393E1,-8.402451277E-1,2.336559631E-2,-2.125810981E-1
1.489862393E1,-8.373435140E-1,1.421788931E-1,-2.188424766E-1
1.490862393E1,-8.391761184E-1,2.826778889E-1,-2.263255715E-1
1.491862393E1,-8.184067011E-1,3.565925956E-1,-2.006692290E-1
1.492862393E1,-7.967209816E-1,3.601050675E-1,-1.481348276E-1
1.493862393E1,-7.562511563E-1,2.897028327E-1,-6.734789163E-2
1.494862393E1,-7.035640478E-1,1.779145002E-1,8.552113548E-3
1.495862393E1,-6.519459486E-1,1.026253626E-1,5.772676691E-2
1.496862393E1,-6.168211699E-1,9.147707373E-2,8.109235764E-2
1.497862393E1,-5.668829679E-1,1.238529310E-1,9.590584040E-2
1.498862393E1,-4.989241958E-1,1.392772794E-1,1.108720452E-1
1.499862393E1,-4.187481403E-1,1.204931661E-1,1.223257631E-1
1.500862393E1,-3.605632186E-1,8.139779419E-2,1.252273768E-1
1.501862393E1,-2.926044464E-1,6.032294407E-2,1.267545372E-1
1.502862393E1,-2.463314086E-1,8.918632567E-2,1.331686229E-1
1.503862393E1,-2.304489166E-1,1.339322031E-1,1.466076523E-1
1.504862393E1,-2.243402600E-1,1.606575549E-1,1.733330190E-1
1.505862393E1,-1.953241676E-1,1.482875347E-1,2.003637999E-1
1.506862393E1,-1.809688359E-1,1.276708394E-1,2.235766798E-1
1.507862393E1,-1.908953935E-1,1.362229437E-1,2.429716438E-1
1.508862393E1,-2.003637999E-1,1.847867370E-1,2.393064648E-1
1.509862393E1,-1.685988009E-1,1.675297916E-1,2.017382532E-1
1.510862393E1,-1.189660057E-1,4.841107130E-2,1.569923609E-1
1.511862393E1,-9.590584040E-2,-3.787364438E-2,1.120937690E-1
1.512862393E1,-1.238529310E-1,-1.201877370E-1,5.360342562E-2
1.513862393E1,-1.699732542E-1,-2.351831198E-1,-1.359175146E-2
1.514862393E1,-2.032654136E-1,-4.106541574E-1,-4.520402849E-2
1.515862393E1,-2.269364446E-1,-5.560401082E-1,-5.009094998E-2
1.516862393E1,-2.525927722E-1,-5.752823353E-1,-5.864306539E-2
1.517862393E1,-3.123048544E-1,-5.468770862E-1,-7.941247895E-3
1.518862393E1,-3.765984178E-1,-6.724098921E-1,8.323039114E-2
1.519862393E1,-4.619668424E-1,-4.198171496E-1,7.406741381E-2
1.520862393E1,-5.845980644E-1,1.954768784E-2,-7.467827946E-2
1.521862393E1,-5.671883821E-1,-9.834930301E-2,-1.999056488E-1
1.522862393E1,-4.448626041E-1,-3.016147017E-1,-2.440406680E-1
1.523862393E1,-2.419026345E-1,-3.938553631E-1,-2.733621895E-1
1.524862393E1,-8.109235764E-2,-3.706424832E-1,-3.174972236E-1
1.525862393E1,8.949175477E-2,-3.924809098E-1,-3.908010423E-1
1.526862393E1,2.333505303E-1,-3.837760985E-1,-4.387539625E-1
1.527862393E1,3.967569768E-1,-2.878702581E-1,-4.612032473E-1
1.528862393E1,5.364924073E-1,-2.414444834E-1,-4.092797041E-1
1.529862393E1,6.139195561E-1,-2.333505303E-1,-3.466660380E-1
1.530862393E1,6.291912198E-1,-2.102903575E-1,-2.466368377E-1
1.531862393E1,5.589417219E-1,-2.107485086E-1,-8.017606288E-2
1.532862393E1,4.159992337E-1,-1.831068546E-1,4.703662544E-2
1.533862393E1,3.026837409E-1,-9.621127695E-2,1.241583601E-1
1.534862393E1,1.685988009E-1,-2.000583708E-2,2.281581759E-1
1.535862393E1,7.330382615E-2,6.261368748E-3,3.141374588E-1
1.536862393E1,3.405573592E-2,1.985312067E-2,3.845396638E-1
1.537862393E1,4.001167417E-2,6.230825558E-2,4.175263941E-1
1.538862393E1,1.072068512E-1,1.600466967E-1,4.323398769E-1
1.539862393E1,2.377792895E-1,2.501493096E-1,4.135557711E-1
1.540862393E1,3.711006343E-1,3.521638215E-1,3.617849350E-1
1.541862393E1,5.581781268E-1,4.671591818E-1,2.528982162E-1
1.542862393E1,7.267768979E-1,5.338962078E-1,1.661553532E-1
1.543862393E1,8.460483551E-1,5.172501206E-1,1.375973970E-1
1.544862393E1,8.933904171E-1,4.526511431E-1,1.256855279E-1
1.545862393E1,9.500481486E-1,3.094032407E-1,1.127046347E-1
1.546862393E1,9.847147465E-1,1.563815027E-1,1.082758680E-1
1.547862393E1,9.611964822E-1,3.772092983E-2,1.143845171E-1
1.548862393E1,9.208793640E-1,-2.015855350E-2,1.056796908E-1
1.549862393E1,8.333728909E-1,-2.809980139E-2,9.178250283E-2
1.550862393E1,6.950119138E-1,1.267545391E-2,6.536258012E-2
1.551862393E1,5.604688525E-1,4.627304152E-2,2.199114859E-2
1.552862393E1,4.743368626E-1,5.772676691E-2,-4.123340361E-3
1.553862393E1,3.747658134E-1,6.429356337E-2,-3.283400834E-2
1.554862393E1,2.961169183E-1,6.719517708E-2,-7.590000331E-2
1.555862393E1,2.452623993E-1,6.383541971E-2,-1.090394482E-1
1.556862393E1,1.931861341E-1,7.024950534E-2,-1.531744599E-1
1.557862393E1,1.522581577E-1,7.880161703E-2,-2.107485086E-1
1.558862393E1,1.235474944E-1,9.224065393E-2,-2.791654170E-1
1.559862393E1,1.143845171E-1,1.430951804E-1,-3.280346394E-1
1.560862393E1,1.148426682E-1,2.533563673E-1,-3.549126983E-1
1.561862393E1,1.238529310E-1,3.891211748E-1,-3.416263759E-1
1.562862393E1,1.288925707E-1,4.848742783E-1,-3.112358451E-1
1.563862393E1,1.311833113E-1,5.199990273E-1,-2.722931802E-1
1.564862393E1,1.304197311E-1,4.511239827E-1,-1.905899495E-1
1.565862393E1,1.267545372E-1,2.428189367E-1,-1.160643995E-1
1.566862393E1,1.220203340E-1,3.558290005E-2,-7.559457421E-2
1.567862393E1,1.146899462E-1,-2.527455091E-1,-5.329799280E-2
1.568862393E1,1.185078546E-1,-5.230533481E-1,-4.199698567E-2
1.569862393E1,1.432479024E-1,-7.304421067E-1,-6.108652428E-2
1.570862393E1,1.747074574E-1,-8.118399382E-1,-7.299839705E-2
1.571862393E1,2.151772827E-1,-6.751587987E-1,-5.100724846E-2
1.572862393E1,2.580905557E-1,-4.234823287E-1,-1.522581577E-1
1.573862393E1,3.581197560E-1,-8.597928286E-2,-1.861611903E-1
1.574862393E1,4.485278130E-1,2.128865421E-1,-6.780604273E-2
1.575862393E1,4.459316432E-1,3.755294085E-1,7.696902007E-2
1.576862393E1,3.316998184E-1,2.345722616E-1,1.763873398E-1
1.577862393E1,1.956295967E-1,3.558290005E-2,2.246456891E-1
1.578862393E1,6.108652335E-3,-1.788308024E-1,2.616030276E-1
1.579862393E1,-1.285871267E-1,-2.942843437E-1,3.280346394E-1
1.580862393E1,-1.569923609E-1,-3.376557529E-1,3.717114925E-1
1.581862393E1,-1.824959964E-1,-3.350595832E-1,3.654501438E-1
1.582862393E1,-1.951714456E-1,-2.029599845E-1,3.286454976E-1
1.583862393E1,-1.879937798E-1,-2.855795063E-2,2.663372457E-1
1.584862393E1,-2.073887438E-1,1.666134894E-1,1.832595766E-1
1.585862393E1,-2.489275932E-1,2.903137207E-1,1.047633886E-1
1.586862393E1,-3.393356502E-1,3.356704414E-1,3.054326167E-3
1.587862393E1,-4.204280078E-1,3.190243840E-1,-6.918048859E-2
1.588862393E1,-5.093088746E-1,2.651155293E-1,-9.040805697E-2
1.589862393E1,-5.728389025E-1,2.012801021E-1,-9.193521738E-2
1.590862393E1,-6.543893814E-1,1.302670091E-1,-1.056796908E-1
1.591862393E1,-7.356344461E-1,1.427897513E-1,-1.401935667E-1
1.592862393E1,-7.976372838E-1,1.273654103E-1,-1.612684280E-1
1.593862393E1,-8.426886201E-1,5.986479297E-2,-1.834122837E-1
1.594862393E1,-8.610145450E-1,-2.611448988E-2,-2.284636050E-1
1.595862393E1,-8.637634516E-1,-7.467827946E-2,-2.113593817E-1
1.596862393E1,-8.652906418E-1,-8.781187981E-2,-1.748601794E-1
1.597862393E1,-8.542950749E-1,-8.552113175E-2,-1.698205322E-1
1.598862393E1,-8.249735236E-1,-5.421429127E-2,-1.710422635E-1
1.599862393E1,-7.980954647E-1,6.261368748E-3,-1.452332139E-1
1.600862393E1,-7.750352621E-1,7.162395120E-2,-1.185078546E-1
1.601862393E1,-7.420485616E-1,1.611157060E-1,-7.819075137E-2
1.602862393E1,-7.093672752E-1,2.130392492E-1,-3.054326214E-2
1.603862393E1,-6.765332818E-1,2.432770878E-1,1.374446787E-3
1.604862393E1,-6.305656433E-1,2.515237629E-1,3.451388702E-2
1.605862393E1,-5.942191482E-1,2.548835278E-1,6.887505949E-2
1.606862393E1,-5.653557777E-1,2.438879460E-1,1.018617824E-1
1.607862393E1,-5.326744914E-1,2.292271852E-1,1.154535338E-1
1.608862393E1,-4.841107130E-1,2.095267773E-1,1.218676195E-1
1.609862393E1,-4.196644127E-1,1.884519309E-1,1.198823079E-1
1.610862393E1,-3.541491330E-1,1.553124934E-1,1.275181174E-1
1.611862393E1,-2.971859276E-1,1.403462887E-1,1.302670091E-1
1.612862393E1,-2.325869352E-1,1.606575549E-1,1.331686229E-1
1.613862393E1,-1.838704348E-1,1.991420686E-1,1.430951804E-1
1.614862393E1,-1.522581577E-1,2.243402600E-1,1.542434692E-1
1.615862393E1,-1.169806942E-1,2.470949888E-1,1.666134894E-1
1.616862393E1,-9.025534242E-2,2.493857294E-1,1.788308024E-1
1.617862393E1,-6.123924255E-2,2.444988191E-1,1.948660165E-1
1.618862393E1,-1.634064503E-2,2.211332172E-1,2.037235647E-1
1.619862393E1,6.123924255E-2,1.453859210E-1,1.847867370E-1
1.620862393E1,1.241583601E-1,6.872233935E-3,1.438587606E-1
1.621862393E1,1.701259762E-1,-1.328631938E-1,9.666942805E-2
1.622862393E1,1.762346178E-1,-2.299907655E-1,5.177082866E-2
1.623862393E1,1.481348276E-1,-3.280346394E-1,-7.941247895E-3
1.624862393E1,1.030835137E-1,-4.114177525E-1,-4.718934000E-2
1.625862393E1,5.910121277E-2,-4.815145433E-1,-4.734205827E-2
1.626862393E1,-8.093964309E-3,-5.125159621E-1,-2.687807009E-2
1.627862393E1,-1.010981947E-1,-3.434589803E-1,-1.420261711E-2
1.628862393E1,-2.391537428E-1,-3.375030458E-1,8.857546002E-2
1.629862393E1,-3.349068761E-1,-2.376265824E-1,9.147707373E-2
1.630862393E1,-4.967861474E-1,1.681406647E-1,-9.773843922E-3
1.631862393E1,-5.650503635E-1,2.435825169E-1,-1.235474944E-1
1.632862393E1,-4.057672322E-1,-1.235474944E-1,-1.685988009E-1
1.633862393E1,-2.058615834E-1,-3.697261810E-1,-1.988366395E-1
1.634862393E1,2.947424725E-2,-5.105306506E-1,-1.985312104E-1
1.635862393E1,1.794416606E-1,-4.425718784E-1,-2.258674204E-1
1.636862393E1,2.947424948E-1,-3.488040566E-1,-3.094032407E-1
1.637862393E1,3.842342496E-1,-2.477058619E-1,-3.808744848E-1
1.638862393E1,4.663956165E-1,-1.101084575E-1,-4.072943926E-1
1.639862393E1,5.393940210E-1,-5.115996301E-2,-3.692680299E-1
1.640862393E1,5.791002512E-1,-5.971207842E-2,-3.043636084E-1
1.641862393E1,5.827654600E-1,-1.165225431E-1,-1.495092660E-1
1.642862393E1,4.996877611E-1,-7.223481685E-2,-4.657847434E-2
1.643862393E1,3.949243724E-1,1.832595654E-2,3.329215571E-2
1.644862393E1,3.156646192E-1,7.223481685E-2,9.850201756E-2
1.645862393E1,2.266310006E-1,1.371392459E-1,1.722639948E-1
1.646862393E1,1.669189334E-1,1.788308024E-1,2.243402600E-1
1.647862393E1,1.437060535E-1,2.165517360E-1,2.667953968E-1
1.648862393E1,1.484402567E-1,2.226603776E-1,2.935207486E-1
1.649862393E1,2.006692290E-1,2.066251636E-1,3.048217595E-1
1.650862393E1,2.881756723E-1,1.950187236E-1,3.042109013E-1
1.651862393E1,3.746131063E-1,1.896736622E-1,2.814561725E-1
1.652862393E1,5.073235631E-1,2.093740702E-1,2.565633953E-1
1.653862393E1,6.374378800E-1,2.182316035E-1,2.609921694E-1
1.654862393E1,7.444919944E-1,2.041817009E-1,2.444988191E-1
1.655862393E1,8.016079068E-1,1.673770845E-1,2.241875380E-1
1.656862393E1,8.515461683E-1,1.476766765E-1,2.026545405E-1
1.657862393E1,8.710938692E-1,1.463022232E-1,1.941024363E-1
1.658862393E1,8.600982428E-1,1.160643995E-1,1.904372424E-1
1.659862393E1,8.321511745E-1,9.330966324E-2,1.757764816E-1
1.660862393E1,7.652614117E-1,8.643743396E-2,1.559233516E-1
1.661862393E1,6.609562039E-1,1.052215397E-1,1.320996135E-1
1.662862393E1,5.542075038E-1,1.240056455E-1,1.046106741E-1
1.663862393E1,4.268420935E-1,1.417207420E-1,5.513058975E-2
1.664862393E1,3.298672438E-1,1.411098689E-1,8.399397135E-3
1.665862393E1,2.557998300E-1,9.422596544E-2,-3.466660157E-2
1.666862393E1,2.107485086E-1,4.230241850E-2,-6.658431143E-2
1.667862393E1,1.634064466E-1,-2.046398632E-2,-1.081231460E-1
1.668862393E1,1.319468915E-1,-5.299255997E-2,-1.473712474E-1
1.669862393E1,1.053742543E-1,-3.711006418E-2,-1.828014255E-1
1.670862393E1,9.239336848E-2,2.901609987E-3,-2.109012306E-1
1.671862393E1,7.941248268E-2,8.048149943E-2,-2.367102802E-1
1.672862393E1,6.520986557E-2,1.798998117E-1,-2.307543457E-1
1.673862393E1,5.803219974E-2,2.588541508E-1,-2.115120888E-1
1.674862393E1,4.963280261E-2,2.806925774E-1,-1.944078654E-1
1.675862393E1,6.246097013E-2,2.176207453E-1,-1.650863290E-1
1.676862393E1,7.528914511E-2,9.285151958E-2,-1.404990107E-1
1.677862393E1,7.590000331E-2,-2.229658142E-2,-1.136209369E-1
1.678862393E1,7.024950534E-2,-1.809688359E-1,-8.292495459E-2
1.679862393E1,6.826419383E-2,-3.591887653E-1,-8.643743396E-2
1.680862393E1,7.391469181E-2,-5.143485069E-1,-1.032362282E-1
1.681862393E1,8.933904022E-2,-6.259841323E-1,-1.200350225E-1
1.682862393E1,1.232420653E-1,-6.879869699E-1,-1.343903542E-1
1.683862393E1,1.528690308E-1,-5.221370459E-1,-1.088867337E-1
1.684862393E1,1.860084683E-1,-2.606867552E-1,-1.930334121E-1
1.685862393E1,2.609921694E-1,-4.902193695E-2,-1.769981980E-1
1.686862393E1,3.692680299E-1,2.474004179E-1,-5.039638374E-3
1.687862393E1,3.077233732E-1,2.796235681E-1,1.395827085E-1
1.688862393E1,1.922698319E-1,1.156062484E-1,2.073887438E-1
1.689862393E1,4.291328415E-2,-1.307251602E-1,2.226603776E-1
1.690862393E1,-9.621127695E-2,-2.751947939E-1,2.099849284E-1
1.691862393E1,-1.175915599E-1,-4.046982229E-1,2.489275932E-1
1.692862393E1,-3.405573592E-2,-4.876231849E-1,2.703078687E-1
1.693862393E1,6.185010448E-2,-5.500841737E-1,2.513710558E-1
1.694862393E1,1.169806942E-1,-4.911356568E-1,2.174680233E-1
1.695862393E1,1.435533315E-1,-3.338378668E-1,1.553124934E-1
1.696862393E1,1.348485053E-1,-1.678352207E-1,9.529497474E-2
1.697862393E1,1.006400511E-1,1.404990070E-2,2.183843218E-2
1.698862393E1,4.199698567E-2,1.088867337E-1,-5.299255997E-2
1.699862393E1,-3.558290005E-2,1.165225431E-1,-1.058324054E-1
1.700862393E1,-1.437060535E-1,9.056077152E-2,-1.307251602E-1
1.701862393E1,-2.315179259E-1,1.832595654E-2,-1.311833113E-1
1.702862393E1,-2.974913716E-1,-4.780020565E-2,-1.131627858E-1
1.703862393E1,-3.488040566E-1,-7.162395120E-2,-9.758572280E-2
1.704862393E1,-4.195117056E-1,-1.099557430E-1,-9.422596544E-2
1.705862393E1,-4.715879560E-1,-1.327104717E-1,-1.360702366E-1
1.706862393E1,-5.080871582E-1,-1.641700417E-1,-1.739438772E-1
1.707862393E1,-5.175555944E-1,-1.798998117E-1,-2.105957866E-1
1.708862393E1,-5.277875662E-1,-1.337794960E-1,-2.886338234E-1
1.709862393E1,-5.343543887E-1,-4.184427112E-2,-3.533855379E-1
1.710862393E1,-5.607742667E-1,3.833179548E-2,-3.718642294E-1
1.711862393E1,-5.900958180E-1,1.039998084E-1,-3.112358451E-1
1.712862393E1,-6.232352853E-1,1.395827085E-1,-2.273945808E-1
1.713862393E1,-6.391177773E-1,1.905899495E-1,-1.751656085E-1
1.714862393E1,-6.502660513E-1,2.270891517E-1,-1.374446750E-1
1.715862393E1,-6.493497491E-1,2.599231601E-1,-6.551529467E-2
1.716862393E1,-6.304129362E-1,2.441933751E-1,1.863138936E-2
1.717862393E1,-5.920811296E-1,1.966986060E-1,8.842274547E-2
1.718862393E1,-5.572618246E-1,1.565342247E-1,1.240056455E-1
1.719862393E1,-5.051855445E-1,1.368338168E-1,1.449277848E-1
1.720862393E1,-4.466952085E-1,1.304197311E-1,1.343903542E-1
1.721862393E1,-3.798054755E-1,1.264491081E-1,1.237002090E-1
1.722862393E1,-3.239113092E-1,1.259909570E-1,1.156062484E-1
1.723862393E1,-2.606867552E-1,1.291979998E-1,1.183551401E-1
1.724862393E1,-2.156354338E-1,1.519527286E-1,1.233947799E-1
1.725862393E1,-1.863138974E-1,1.954768747E-1,1.394299865E-1
1.726862393E1,-1.679879427E-1,2.645046413E-1,1.759291887E-1
1.727862393E1,-1.693623960E-1,3.226895630E-1,2.197587788E-1
1.728862393E1,-2.023491114E-1,3.350595832E-1,2.622139156E-1
1.729862393E1,-2.280054539E-1,3.316998184E-1,2.864958048E-1
1.730862393E1,-2.330450863E-1,3.159700334E-1,2.962696552E-1
1.731862393E1,-2.098322064E-1,2.672535479E-1,2.525927722E-1
1.732862393E1,-1.588249654E-1,1.395827085E-1,1.750128865E-1
1.733862393E1,-1.078177169E-1,1.435533352E-2,1.023199260E-1
1.734862393E1,-4.703662544E-2,-1.559233516E-1,2.000583708E-2
1.735862393E1,-1.802052557E-2,-3.028364480E-1,-6.139195710E-2
1.736862393E1,-4.581489135E-3,-3.987422884E-1,-1.148426682E-1
1.737862393E1,3.817907767E-3,-4.897612035E-1,-1.499674171E-1
1.738862393E1,-6.108652335E-3,-5.248859525E-1,-1.463022232E-1
1.739862393E1,-3.833179548E-2,-3.585779071E-1,-1.576032341E-1
1.740862393E1,-9.330966324E-2,-3.119994104E-1,-7.757988572E-2
1.741862393E1,-1.693623960E-1,-3.368921876E-1,1.343903504E-2
1.742862393E1,-2.967278063E-1,5.650503561E-3,-2.672535367E-2
1.743862393E1,-4.097378552E-1,1.953241676E-1,-1.055269688E-1
1.744862393E1,-3.468187451E-1,2.397646010E-2,-1.537853181E-1
1.745862393E1,-1.430951804E-1,-2.113593817E-1,-2.180788964E-1
1.746862393E1,9.529497474E-2,-2.990185320E-1,-2.764165103E-1
1.747862393E1,2.437352389E-1,-3.145956099E-1,-3.072652221E-1
1.748862393E1,3.402519524E-1,-3.043636084E-1,-3.749185503E-1
1.749862393E1,4.465425014E-1,-2.724458873E-1,-4.376849532E-1
1.750862393E1,5.140430927E-1,-1.783726513E-1,-4.752531648E-1
1.751862393E1,5.409211516E-1,-1.264491081E-1,-4.642575979E-1
1.752862393E1,5.502368808E-1,-1.142318025E-1,-3.935499489E-1
1.753862393E1,5.172501206E-1,-1.756237596E-1,-1.962404549E-1
1.754862393E1,4.008803070E-1,-1.492038369E-1,-4.703662544E-2
1.755862393E1,3.008511364E-1,-8.292495459E-2,4.505131021E-2
1.756862393E1,1.750128865E-1,-2.977968007E-2,1.649336219E-1
1.757862393E1,6.520986557E-2,4.260785133E-2,2.811507285E-1
1.758862393E1,-1.175915636E-2,1.122464910E-1,3.744603992E-1
1.759862393E1,-5.574145541E-2,1.490511149E-1,4.204280078E-1
1.760862393E1,-7.284568250E-2,1.745547503E-1,4.459316432E-1
1.761862393E1,-5.070181563E-2,2.156354338E-1,4.436408877E-1
1.762862393E1,-1.282817032E-2,2.444988191E-1,4.303545654E-1
1.763862393E1,7.620543987E-2,2.547308207E-1,3.967569768E-1
1.764862393E1,1.919644028E-1,2.515237629E-1,3.425426781E-1
1.765862393E1,3.236058652E-1,2.336559594E-1,2.921462953E-1
1.766862393E1,4.257730842E-1,2.159408629E-1,2.707660198E-1
1.767862393E1,5.242751241E-1,1.620320082E-1,2.470949888E-1
1.768862393E1,6.154467463E-1,1.043052375E-1,2.049452960E-1
1.769862393E1,6.812674403E-1,5.543602258E-2,1.615738571E-1
1.770862393E1,7.127270103E-1,2.855795063E-2,1.543961912E-1
1.771862393E1,7.151705027E-1,2.000583708E-2,1.568396538E-1
1.772862393E1,6.884451509E-1,2.626720630E-2,1.542434692E-1
1.773862393E1,6.484334469E-1,3.741549700E-2,1.492038369E-1
1.774862393E1,5.734497309E-1,9.239336848E-2,1.206458881E-1
1.775862393E1,4.801400900E-1,1.426370293E-1,9.453139454E-2
1.776862393E1,3.990477324E-1,1.769981980E-1,5.864306539E-2
1.777862393E1,3.567453027E-1,1.844813079E-1,1.939497143E-2
1.778862393E1,3.181080818E-1,1.519527286E-1,-4.169155285E-2
1.779862393E1,2.903137207E-1,9.743300825E-2,-1.064432710E-1
1.780862393E1,2.637410760E-1,4.550946131E-2,-1.698205322E-1
1.781862393E1,2.457205504E-1,1.160643995E-2,-2.186897546E-1
1.782862393E1,2.289217561E-1,7.635815418E-4,-2.735149264E-1
1.783862393E1,2.171625942E-1,3.833179548E-2,-3.113885522E-1
1.784862393E1,1.992947906E-1,1.062905490E-1,-3.188716471E-1
1.785862393E1,1.728748679E-1,2.142609805E-1,-3.058907688E-1
1.786862393E1,1.255328059E-1,3.031418920E-1,-2.756529450E-1
1.787862393E1,7.422012836E-2,3.350595832E-1,-2.272418737E-1
1.788862393E1,4.214970022E-2,2.904664278E-1,-1.762346178E-1
1.789862393E1,2.168571576E-2,1.282816976E-1,-1.055269688E-1
1.790862393E1,2.153299935E-2,-1.224784851E-1,-4.673119262E-2
1.791862393E1,5.207626149E-2,-3.990477324E-1,-3.283400834E-2
1.792862393E1,9.025534242E-2,-5.907067060E-1,-4.948008433E-2
1.793862393E1,1.507309973E-1,-7.571674585E-1,-8.903361112E-2
1.794862393E1,2.176207453E-1,-7.855727077E-1,-1.154535338E-1
1.795862393E1,2.805398703E-1,-5.800165534E-1,-1.226311997E-1
1.796862393E1,3.425426781E-1,-3.732386529E-1,-2.005165219E-1
1.797862393E1,4.448626041E-1,4.276056774E-3,-1.797471046E-1
1.798862393E1,5.270239711E-1,4.039346576E-1,-3.833179548E-2
1.799862393E1,5.050328374E-1,5.933028460E-1,9.285151958E-2
1.800862393E1,3.937026560E-1,6.099489331E-1,2.165517360E-1
1.801862393E1,2.017382532E-1,3.616322279E-1,2.231185287E-1
1.802862393E1,2.290744707E-2,5.009094998E-2,2.321287990E-1
1.803862393E1,-3.894266114E-2,-1.033889428E-1,3.112358451E-1
1.804862393E1,-8.613199741E-2,-2.556470931E-1,3.720169365E-1
1.805862393E1,-1.530217379E-1,-2.759583890E-1,3.472768962E-1
1.806862393E1,-1.850921661E-1,-2.066251636E-1,2.874121070E-1
1.807862393E1,-2.101376504E-1,-1.363756657E-1,2.335032374E-1
1.808862393E1,-2.504547536E-1,-3.802636266E-2,1.284344196E-1
1.809862393E1,-2.762638032E-1,3.222314268E-2,2.336559631E-2
1.810862393E1,-2.927571833E-1,4.199698567E-2,-4.627304152E-2
1.811862393E1,-3.240640163E-1,2.626720630E-2,-1.061378345E-1
1.812862393E1,-3.677408695E-1,1.924225502E-2,-1.368338168E-1
1.813862393E1,-4.355469346E-1,6.811147183E-2,-1.456913650E-1
1.814862393E1,-5.119050741E-1,1.365283877E-1,-1.401935667E-1
1.815862393E1,-5.969680548E-1,2.049452960E-1,-1.200350225E-1
1.816862393E1,-6.673702598E-1,2.211332172E-1,-1.229366288E-1
1.817862393E1,-7.376197577E-1,2.277000248E-1,-1.488984078E-1
1.818862393E1,-7.573201656E-1,2.168571651E-1,-1.343903542E-1
1.819862393E1,-7.889324427E-1,2.159408629E-1,-1.235474944E-1
1.820862393E1,-8.106181622E-1,2.499966025E-1,-1.322523206E-1
1.821862393E1,-8.009970784E-1,2.632829249E-1,-1.200350225E-1
1.822862393E1,-7.864890099E-1,2.571742535E-1,-1.078177169E-1
1.823862393E1,-7.793113589E-1,2.437352389E-1,-9.193521738E-2
1.824862393E1,-7.528914213E-1,2.435825169E-1,-4.902193695E-2
1.825862393E1,-7.189884186E-1,2.568688393E-1,-2.214386500E-2
1.826862393E1,-6.824892163E-1,2.724458873E-1,4.886921961E-3
1.827862393E1,-6.524040699E-1,2.551889420E-1,3.313944116E-2
1.828862393E1,-6.102544069E-1,2.223549485E-1,7.116580009E-2
1.829862393E1,-5.739079118E-1,2.063197345E-1,9.453139454E-2
1.830862393E1,-5.290092826E-1,2.037235647E-1,1.131627858E-1
1.831862393E1,-4.754058719E-1,2.299907655E-1,1.169806942E-1
1.832862393E1,-4.195117056E-1,2.211332172E-1,1.185078546E-1
1.833862393E1,-3.686571717E-1,1.820378453E-1,1.177442744E-1
1.834862393E1,-3.019201458E-1,1.331686229E-1,1.133155003E-1
1.835862393E1,-2.605340183E-1,1.389718503E-1,1.122464910E-1
1.836862393E1,-2.434297949E-1,1.715004146E-1,1.171334088E-1
1.837862393E1,-2.202169150E-1,2.125810981E-1,1.295034289E-1
1.838862393E1,-1.850921661E-1,2.136501223E-1,1.406517178E-1
1.839862393E1,-1.539380401E-1,1.285871267E-1,1.627955884E-1
1.840862393E1,-1.262963861E-1,7.635815442E-2,1.824959964E-1
1.841862393E1,-6.429356337E-2,6.994406879E-2,1.901318133E-1
1.842862393E1,1.939497143E-2,3.176499158E-2,1.907426715E-1
1.843862393E1,9.224065393E-2,-4.016438872E-2,1.740965992E-1
1.844862393E1,1.189660057E-1,-9.865473956E-2,1.305724531E-1
1.845862393E1,1.070541367E-1,-1.834122837E-1,5.742133409E-2
1.846862393E1,6.078109145E-2,-2.959642112E-1,-1.939497143E-2
1.847862393E1,1.572977938E-2,-3.975205719E-1,-6.230825558E-2
1.848862393E1,-6.078109145E-2,-4.431827366E-1,-1.027780771E-1
1.849862393E1,-1.328631938E-1,-4.292855561E-1,-4.841107130E-2
1.850862393E1,-1.701259762E-1,-4.859432876E-1,4.153883830E-2
1.851862393E1,-2.357939780E-1,-2.394591719E-1,8.093964309E-3
1.852862393E1,-3.779728711E-1,1.832595654E-2,-4.917465150E-2
1.853862393E1,-3.859141171E-1,-1.913535446E-1,-7.574728876E-2
1.854862393E1,-2.796235681E-1,-4.660901725E-1,-1.296561509E-1
1.855862393E1,-1.495092660E-1,-5.529857874E-1,-1.824959964E-1
1.856862393E1,1.618792862E-2,-5.566509366E-1,-2.350303978E-1
1.857862393E1,1.093448773E-1,-4.918992519E-1,-3.236058652E-1
1.858862393E1,1.867720485E-1,-4.282165468E-1,-4.060726762E-1
1.859862393E1,2.945897579E-1,-3.187189400E-1,-4.641048610E-1
1.860862393E1,3.979786932E-1,-2.296853364E-1,-4.283692539E-1
1.861862393E1,5.009095073E-1,-2.325869352E-1,-3.460551500E-1
1.862862393E1,5.499314666E-1,-2.655736506E-1,-2.458732575E-1
1.863862393E1,5.450445414E-1,-2.955060601E-1,-6.429356337E-2
1.864862393E1,4.815145433E-1,-2.003637999E-1,4.489859566E-2
1.865862393E1,3.961461186E-1,-1.233947799E-1,1.394299865E-1
1.866862393E1,3.521638215E-1,-6.246097013E-2,2.073887438E-1
1.867862393E1,3.106249869E-1,-3.054326226E-4,2.764165103E-1
1.868862393E1,2.851213515E-1,6.551529467E-2,3.237585723E-1
1.869862393E1,2.790127099E-1,1.067487001E-1,3.382666409E-1
1.870862393E1,3.023782969E-1,1.574505121E-1,3.359758854E-1
1.871862393E1,3.622430861E-1,1.957823038E-1,3.216205537E-1
1.872862393E1,4.463897645E-1,2.255619913E-1,2.880229652E-1
1.873862393E1,5.256495476E-1,2.408336252E-1,2.628247738E-1
1.874862393E1,6.366742849E-1,2.678644061E-1,2.255619913E-1
1.875862393E1,7.257078886E-1,2.793181241E-1,1.931861341E-1
1.876862393E1,7.889324427E-1,2.535090744E-1,1.728748679E-1
1.877862393E1,8.229882121E-1,2.278527319E-1,1.681406647E-1
1.878862393E1,8.581129313E-1,1.985312104E-1,1.733330190E-1
1.879862393E1,8.663596511E-1,1.838704348E-1,1.843285859E-1
1.880862393E1,8.443684578E-1,1.682933718E-1,1.988366395E-1
1.881862393E1,8.040513992E-1,1.371392459E-1,2.072360367E-1
1.882862393E1,7.200574279E-1,1.122464910E-1,2.055561543E-1
1.883862393E1,6.073527932E-1,1.418734491E-1,1.756237596E-1
1.884862393E1,5.164865851E-1,1.788308024E-1,1.421788931E-1
1.885862393E1,4.317290187E-1,2.072360367E-1,8.918632567E-2
1.886862393E1,3.750712574E-1,2.159408629E-1,2.794708498E-2
1.887862393E1,3.388774991E-1,1.748601794E-1,-4.520402849E-2
1.888862393E1,3.182607889E-1,1.009454802E-1,-9.651670605E-2
1.889862393E1,3.095559776E-1,-3.207042580E-3,-1.487456858E-1
1.890862393E1,3.037527502E-1,-4.688390717E-2,-1.986839175E-1
1.891862393E1,2.808452845E-1,-3.466660157E-2,-2.367102802E-1
1.892862393E1,2.628247738E-1,1.679879380E-3,-2.550362349E-1
1.893862393E1,2.379320115E-1,1.000291854E-1,-2.785545588E-1
1.894862393E1,2.128865421E-1,2.261728644E-1,-2.884811163E-1
1.895862393E1,1.899790913E-1,2.942843437E-1,-2.802344263E-1
1.896862393E1,1.608102769E-1,3.113885522E-1,-2.706133127E-1
1.897862393E1,1.264491081E-1,2.571742535E-1,-2.489275932E-1
1.898862393E1,8.445212245E-2,1.617265791E-1,-1.977676302E-1
1.899862393E1,5.085453019E-2,6.872233748E-2,-1.418734491E-1
1.900862393E1,2.199114859E-2,-6.918048859E-2,-8.093964309E-2
1.901862393E1,1.267545391E-2,-2.376265824E-1,-7.101308554E-2
1.902862393E1,2.703078650E-2,-3.880521357E-1,-1.049161032E-1
1.903862393E1,4.505131021E-2,-4.547891617E-1,-1.339322031E-1
1.904862393E1,4.352414981E-2,-2.548835278E-1,-1.463022232E-1
1.905862393E1,3.023782931E-2,4.810563847E-2,-1.699732542E-1
1.906862393E1,9.392052889E-2,2.150245607E-1,-1.356120855E-1
1.907862393E1,2.370157093E-1,3.743076921E-1,3.191770986E-2
1.908862393E1,2.163990140E-1,3.068070710E-1,1.634064466E-1
1.909862393E1,8.460483700E-2,-2.306016348E-2,2.277000248E-1
1.910862393E1,-5.360342562E-2,-2.354885489E-1,2.466368377E-1
1.911862393E1,-2.098322064E-1,-3.836233616E-1,2.338086665E-1
1.912862393E1,-2.212859392E-1,-5.010622144E-1,2.472477108E-1
1.913862393E1,-9.880745411E-2,-5.671883821E-1,2.626720667E-1
1.914862393E1,1.069014147E-2,-5.897904038E-1,2.451096773E-1
1.915862393E1,1.166752651E-1,-5.577199459E-1,2.225076705E-1
1.916862393E1,1.808161139E-1,-4.382958114E-1,1.641700417E-1
1.917862393E1,1.818851233E-1,-2.602286041E-1,9.819658846E-2
1.918862393E1,1.438587606E-1,-9.651670605E-2,4.291328415E-2
1.919862393E1,4.413501546E-2,8.582656831E-2,-3.955352306E-2
1.920862393E1,-1.007927656E-1,1.847867370E-1,-1.183551401E-1
1.921862393E1,-2.318233550E-1,2.159408629E-1,-1.692096740E-1
1.922862393E1,-3.921754956E-1,2.096794993E-1,-1.980730593E-1
1.923862393E1,-5.323690772E-1,1.571450830E-1,-1.731802970E-1
1.924862393E1,-6.389650702E-1,2.351831272E-2,-1.224784851E-1
1.925862393E1,-7.136433125E-1,-5.604688451E-2,-7.528914511E-2
1.926862393E1,-7.944302559E-1,-1.499674171E-1,-5.864306539E-2
1.927862393E1,-8.283332586E-1,-2.067778856E-1,-1.146899462E-1
1.928862393E1,-8.074111342E-1,-2.093740702E-1,-1.670716405E-1
1.929862393E1,-7.913759351E-1,-2.109012306E-1,-2.095267773E-1
1.930862393E1,-7.617489696E-1,-1.879937798E-1,-2.570215464E-1
1.931862393E1,-7.565566301E-1,-1.299615800E-1,-2.790127099E-1
1.932862393E1,-7.536550164E-1,-4.031710699E-2,-2.900082767E-1
1.933862393E1,-7.373143435E-1,8.689557761E-2,-2.985603809E-1
1.934862393E1,-7.163922191E-1,2.018909603E-1,-2.767219543E-1
1.935862393E1,-6.908885837E-1,2.648100853E-1,-2.193006277E-1
1.936862393E1,-6.620252132E-1,2.562579811E-1,-1.704314053E-1
1.937862393E1,-6.189591885E-1,2.099849284E-1,-9.575312585E-2
1.938862393E1,-5.807801485E-1,1.479821056E-1,-2.122756653E-2
1.939862393E1,-5.435173512E-1,1.055269688E-1,4.001167417E-2
1.940862393E1,-5.109887719E-1,8.842274547E-2,7.315111160E-2
1.941862393E1,-4.612032473E-1,9.651670605E-2,9.651670605E-2
1.942862393E1,-4.101960063E-1,1.072068512E-1,1.017090604E-1
1.943862393E1,-3.688098788E-1,1.056796908E-1,1.055269688E-1
1.944862393E1,-3.275764883E-1,9.208793938E-2,1.082758680E-1
1.945862393E1,-2.984076738E-1,8.216137439E-2,1.084285825E-1
1.946862393E1,-2.800817192E-1,1.050688252E-1,1.159116775E-1
1.947862393E1,-2.690861523E-1,1.414152980E-1,1.304197311E-1
1.948862393E1,-2.521346211E-1,1.753183305E-1,1.572978050E-1
1.949862393E1,-2.512183189E-1,1.693623960E-1,2.025018334E-1
1.950862393E1,-2.577851415E-1,1.317941695E-1,2.499966025E-1
1.951862393E1,-2.590068579E-1,1.270599663E-1,2.561052442E-1
1.952862393E1,-2.455678284E-1,1.354593635E-1,2.426662147E-1
1.953862393E1,-2.017382532E-1,9.392052889E-2,2.064724565E-1
1.954862393E1,-1.372919679E-1,4.886921961E-3,1.496619880E-1
1.955862393E1,-9.590584040E-2,-6.704246253E-2,9.880745411E-2
1.956862393E1,-8.491026610E-2,-1.835650057E-1,2.947424725E-2
1.957862393E1,-9.605856240E-2,-3.446807265E-1,-4.948008433E-2
1.958862393E1,-1.084285825E-1,-4.792237878E-1,-8.964447677E-2
1.959862393E1,-1.230893433E-1,-5.458080769E-1,-1.226311997E-1
1.960862393E1,-1.579086632E-1,-4.280638099E-1,-1.339322031E-1
1.961862393E1,-1.951714456E-1,-4.834998548E-1,-2.183843218E-2
1.962862393E1,-1.913535446E-1,-3.597996235E-1,8.399397135E-3
1.963862393E1,-2.587014437E-1,4.535674304E-2,-4.489859566E-2
1.964862393E1,-2.762638032E-1,5.742133409E-2,-1.569923609E-1
1.965862393E1,-1.356120855E-1,-1.992947906E-1,-2.437352389E-1
1.966862393E1,1.618792862E-2,-3.300199509E-1,-2.962696552E-1
1.967862393E1,2.109012306E-1,-3.749185503E-1,-3.316998184E-1
1.968862393E1,3.182607889E-1,-3.370448947E-1,-3.859141171E-1
1.969862393E1,3.735440969E-1,-3.191770911E-1,-4.538728893E-1
1.970862393E1,4.505131245E-1,-2.554943860E-1,-4.816672504E-1
1.971862393E1,5.103778839E-1,-1.601994038E-1,-4.630358517E-1
1.972862393E1,5.696318150E-1,-1.252273768E-1,-3.897320330E-1
1.973862393E1,5.919284225E-1,-1.507309973E-1,-2.640464902E-1
1.974862393E1,5.674937963E-1,-1.805106848E-1,-7.895433158E-2
1.975862393E1,4.659374654E-1,-1.046106741E-1,6.551529467E-2
1.976862393E1,3.538436890E-1,-3.054326167E-3,1.792889535E-1
1.977862393E1,2.733621895E-1,6.902777404E-2,2.591595948E-1
1.978862393E1,1.918116808E-1,1.800525337E-1,3.402519524E-1
1.979862393E1,1.492038369E-1,2.554943860E-1,3.946189582E-1
1.980862393E1,1.371392459E-1,2.907718420E-1,3.946189582E-1
1.981862393E1,1.702786833E-1,3.255911767E-1,3.581197560E-1
1.982862393E1,2.325869352E-1,3.384193480E-1,3.219259977E-1
1.983862393E1,3.141374588E-1,3.051272035E-1,2.968805134E-1
1.984862393E1,3.993531466E-1,2.706133127E-1,2.535090744E-1
1.985862393E1,5.198463202E-1,2.018909603E-1,2.055561543E-1
1.986862393E1,6.327036619E-1,1.090394482E-1,1.831068546E-1
