"Time (s)","Acceleration x (m/s^2)","Acceleration y (m/s^2)","Acceleration z (m/s^2)"
2.586327100E-2,-9.232706070E0,2.338984162E-1,3.884747505E0
3.586327100E-2,-8.965308189E0,4.067798555E-1,3.894917011E0
4.586327100E-2,-8.927022934E0,2.967100143E-1,3.914657831E0
5.586327100E-2,-9.001798630E0,3.110669553E-1,3.704089403E0
6.586327100E-2,-9.062217712E0,2.961117923E-1,3.493520975E0
7.586327100E-2,-9.043074608E0,3.541377485E-1,3.436093330E0
8.586327100E-2,-9.005388260E0,4.307080805E-1,3.535993576E0
9.586327100E-2,-8.954540253E0,3.828516304E-1,3.728017569E0
1.058632710E-1,-8.868997574E0,3.589234054E-1,3.848257065E0
1.158632710E-1,-8.845666885E0,4.019941986E-1,3.914657831E0
1.258632710E-1,-8.949754715E0,4.402793646E-1,3.693919897E0
1.358632710E-1,-8.926424980E0,4.019941986E-1,3.799204111E0
1.458632710E-1,-8.977272034E0,4.115654826E-1,3.602992773E0
1.558632710E-1,-8.959325790E0,5.024927258E-1,3.688536167E0
1.658632710E-1,-8.931808472E0,5.072783828E-1,3.884747505E0
1.758632710E-1,-8.935996056E0,5.072783828E-1,3.750749588E0
1.858632710E-1,-8.989236832E0,5.407779217E-1,3.817150354E0
1.958632710E-1,-8.983852386E0,4.785645306E-1,3.769891977E0
2.058632710E-1,-9.007183075E0,4.737788737E-1,3.683750391E0
2.158632710E-1,-8.855836868E0,4.067798555E-1,3.924229145E0
2.258632710E-1,-8.860024452E0,3.972085714E-1,3.876372576E0
2.358632710E-1,-8.793622971E0,3.780659735E-1,3.958326817E0
2.458632710E-1,-8.850452423E0,3.397808075E-1,3.886542082E0
2.558632710E-1,-8.912068367E0,3.349951804E-1,3.790829182E0
2.658632710E-1,-8.916254997E0,3.397808075E-1,3.771686792E0
2.758632710E-1,-8.997013092E0,4.115654826E-1,3.665206194E0
2.858632710E-1,-9.083154678E0,5.066801906E-1,3.644867182E0
2.958632710E-1,-9.135796547E0,5.210371017E-1,3.644268990E0
3.058632710E-1,-9.116056442E0,3.918247223E-1,3.597608805E0
3.158632710E-1,-9.117252350E0,6.077769399E-1,3.672384501E0
3.258632710E-1,-9.107083321E0,5.934200287E-1,3.653241873E0
3.358632710E-1,-8.998209953E0,5.503492355E-1,3.754936934E0
3.458632710E-1,-8.944371223E0,5.886343718E-1,3.616751432E0
3.558632710E-1,-8.868398666E0,5.557330847E-1,3.693919897E0
3.658632710E-1,-8.925228119E0,5.742774606E-1,3.611965895E0
3.758632710E-1,-9.015557289E0,5.647061467E-1,3.515654564E0
3.858632710E-1,-9.105288506E0,5.742774606E-1,3.362514019E0
3.958632710E-1,-9.247661591E0,6.311069727E-1,3.203391314E0
4.058632710E-1,-9.579067230E0,5.922235847E-1,2.828316450E0
4.158632710E-1,-9.052047729E0,3.924229145E-1,3.980460405E0
4.258632710E-1,-8.936594009E0,5.503492355E-1,3.879961967E0
4.358632710E-1,-8.936594009E0,6.077769399E-1,3.836292982E0
4.458632710E-1,-8.955139160E0,5.790630579E-1,3.754936934E0
4.558632710E-1,-8.949754715E0,5.886343718E-1,3.654438496E0
4.658632710E-1,-8.949754715E0,5.838487148E-1,3.673580885E0
4.758632710E-1,-8.954540253E0,5.694918036E-1,3.664607763E0
4.858632710E-1,-8.987442017E0,5.503492355E-1,3.621536970E0
4.958632710E-1,-9.006584167E0,5.599204898E-1,3.611367464E0
5.058632710E-1,-9.034700394E0,5.359922647E-1,3.573082447E0
5.158632710E-1,-9.077771187E0,5.312066078E-1,3.544368505E0
5.258632710E-1,-9.111269951E0,5.359922647E-1,3.534198999E0
5.358632710E-1,-9.125029564E0,4.977070987E-1,3.525225878E0
5.458632710E-1,-9.134600639E0,4.827519655E-1,3.501297712E0
5.558632710E-1,-9.096315384E0,4.546363056E-1,3.521038532E0
5.658632710E-1,-9.077771187E0,4.115654826E-1,3.568894863E0
5.758632710E-1,-9.120243073E0,4.157529473E-1,3.540181160E0
5.858632710E-1,-9.182456970E0,3.583251834E-1,3.530609846E0
5.958632710E-1,-9.244071960E0,2.913261652E-1,3.449253798E0
6.058632710E-1,-9.233902931E0,2.530409992E-1,3.378067255E0
6.158632710E-1,-9.190832138E0,2.291127741E-1,3.402593851E0
6.258632710E-1,-9.095717430E0,2.961117923E-1,3.436093330E0
6.358632710E-1,-9.033503532E0,3.206382394E-1,3.450450182E0
6.458632710E-1,-8.995218277E0,3.110669553E-1,3.484548092E0
6.558632710E-1,-8.971888542E0,3.110669553E-1,3.508476257E0
6.658632710E-1,-8.967103004E0,1.914258152E-1,3.537788391E0
6.758632710E-1,-8.972486496E0,4.307080805E-1,3.564707518E0
6.858632710E-1,-9.010771751E0,5.359922647E-1,3.568894863E0
6.958632710E-1,-8.977272034E0,4.546363056E-1,3.583850145E0
7.058632710E-1,-8.953942299E0,4.785645306E-1,3.598206997E0
7.158632710E-1,-8.930013657E0,5.455635786E-1,3.607180119E0
7.258632710E-1,-8.892327309E0,5.551348329E-1,3.650849104E0
7.358632710E-1,-8.897112846E0,5.647061467E-1,3.688536167E0
7.458632710E-1,-8.930612564E0,5.838487148E-1,3.688536167E0
7.558632710E-1,-8.977870941E0,5.982056856E-1,3.630510092E0
7.658632710E-1,-9.044271469E0,6.125625968E-1,3.548556089E0
7.758632710E-1,-9.125627518E0,6.167500615E-1,3.495913982E0
7.858632710E-1,-9.177671432E0,6.263213158E-1,3.418745279E0
7.958632710E-1,-9.177671432E0,6.263213158E-1,3.442673683E0
8.058632710E-1,-9.148957253E0,6.406782866E-1,3.452244759E0
8.158632710E-1,-9.106484413E0,6.460621357E-1,3.524029493E0
8.258632710E-1,-9.083154678E0,6.508477330E-1,3.571886063E0
8.358632710E-1,-9.077771187E0,6.317051649E-1,3.558127165E0
8.458632710E-1,-9.077771187E0,6.125625968E-1,3.500699520E0
8.558632710E-1,-9.072985649E0,6.029912829E-1,3.510270834E0
8.658632710E-1,-9.034700394E0,5.790630579E-1,3.515654564E0
8.758632710E-1,-9.001200676E0,5.455635786E-1,3.554538012E0
8.858632710E-1,-8.997013092E0,5.790630579E-1,3.587439299E0
8.958632710E-1,-8.992227554E0,5.838487148E-1,3.606581926E0
9.058632710E-1,-9.006584167E0,6.125625968E-1,3.601796389E0
9.158632710E-1,-9.020941734E0,6.364908218E-1,3.610769272E0
9.258632710E-1,-9.020941734E0,6.364908218E-1,3.615555048E0
9.358632710E-1,-9.026325226E0,6.460621357E-1,3.653840065E0
9.458632710E-1,-9.040083885E0,6.125625968E-1,3.586841106E0
9.558632710E-1,-9.082556725E0,6.221339107E-1,3.558127165E0
9.658632710E-1,-9.087342262E0,5.742774606E-1,3.538984776E0
9.758632710E-1,-9.086744308E0,5.120640397E-1,3.510869026E0
9.858632710E-1,-9.110671997E0,5.210371017E-1,3.486940861E0
9.958632710E-1,-9.101100922E0,5.401797295E-1,3.482155085E0
1.005863271E0,-9.087342262E0,5.503492355E-1,3.510869026E0
1.015863271E0,-9.068199158E0,5.647061467E-1,3.530011654E0
1.025863271E0,-9.053842545E0,5.742774606E-1,3.520440340E0
1.035863271E0,-9.049057007E0,5.694918036E-1,3.506083488E0
1.045863271E0,-9.087342262E0,6.221339107E-1,3.500699520E0
1.055863271E0,-9.115457535E0,4.971089065E-1,3.496512175E0
1.065863271E0,-9.172885895E0,5.162515044E-1,3.462414265E0
1.075863271E0,-9.215357780E0,4.444667995E-1,3.410370588E0
1.085863271E0,-9.214759827E0,4.396811724E-1,3.362514019E0
1.095863271E0,-9.176474571E0,4.444667995E-1,3.338585854E0
1.105863271E0,-9.109476089E0,4.205385745E-1,3.343969584E0
1.115863271E0,-9.080761909E0,4.157529473E-1,3.358924866E0
1.125863271E0,-9.061619759E0,4.444667995E-1,3.368496180E0
1.135863271E0,-9.085547447E0,4.492524564E-1,3.367897987E0
1.145863271E0,-9.119047165E0,4.779663086E-1,3.305684566E0
1.155863271E0,-9.133403778E0,5.066801906E-1,3.290729284E0
1.165863271E0,-9.133403778E0,5.210371017E-1,3.290729284E0
1.175863271E0,-9.114261627E0,5.353940725E-1,3.285943747E0
1.185863271E0,-9.133403778E0,5.258227587E-1,3.309871912E0
1.195863271E0,-9.162117958E0,5.545366406E-1,3.357130051E0
1.205863271E0,-9.167501450E0,5.688936114E-1,3.376272678E0
1.215863271E0,-9.153144836E0,6.071787477E-1,3.399602890E0
1.225863271E0,-9.134002686E0,5.790630579E-1,3.409772158E0
1.235863271E0,-9.110074043E0,5.647061467E-1,3.400799274E0
1.245863271E0,-9.086145401E0,5.599204898E-1,3.391227961E0
1.255863271E0,-9.085547447E0,5.599204898E-1,3.343371391E0
1.265863271E0,-9.105288506E0,5.545366406E-1,3.381656647E0
1.275863271E0,-9.109476089E0,5.545366406E-1,3.333800077E0
1.285863271E0,-9.095717430E0,5.497509837E-1,3.357728481E0
1.295863271E0,-9.105288506E0,5.353940725E-1,3.367299557E0
1.305863271E0,-9.124430656E0,5.401797295E-1,3.357728481E0
1.315863271E0,-9.114859581E0,5.497509837E-1,3.391227961E0
1.325863271E0,-9.119645119E0,5.784648657E-1,3.414557934E0
1.335863271E0,-9.134002686E0,5.928218365E-1,3.404986620E0
1.345863271E0,-9.144171715E0,6.263213158E-1,3.428914785E0
1.355863271E0,-9.129815102E0,6.167500615E-1,3.424129248E0
1.365863271E0,-9.110671997E0,6.119644046E-1,3.424129248E0
1.375863271E0,-9.110671997E0,6.119644046E-1,3.424129248E0
1.385863271E0,-9.114859581E0,5.880361795E-1,3.385843992E0
1.395863271E0,-9.124430656E0,6.167500615E-1,3.371487141E0
1.405863271E0,-9.143573761E0,6.167500615E-1,3.361915827E0
1.415863271E0,-9.129216194E0,6.023930907E-1,3.357130051E0
1.425863271E0,-9.134002686E0,5.976074338E-1,3.361915827E0
1.435863271E0,-9.153144836E0,6.071787477E-1,3.347558975E0
1.445863271E0,-9.157930374E0,6.215356588E-1,3.357130051E0
1.455863271E0,-9.157930374E0,5.976074338E-1,3.385843992E0
1.465863271E0,-9.157930374E0,6.119644046E-1,3.390629768E0
1.475863271E0,-9.129216194E0,6.167500615E-1,3.361915827E0
1.485863271E0,-9.124430656E0,5.928218365E-1,3.357130051E0
1.495863271E0,-9.119645119E0,6.023930907E-1,3.395415306E0
1.505863271E0,-9.124430656E0,5.976074338E-1,3.400201082E0
1.515863271E0,-9.119645119E0,5.736792088E-1,3.386442184E0
1.525863271E0,-9.134002686E0,5.832505226E-1,3.400201082E0
1.535863271E0,-9.148359299E0,5.688936114E-1,3.376272678E0
1.545863271E0,-9.143573761E0,5.736792088E-1,3.376272678E0
1.555863271E0,-9.124430656E0,6.125625968E-1,3.371487141E0
1.565863271E0,-9.110074043E0,5.982056856E-1,3.352344513E0
1.575863271E0,-9.095717430E0,5.790630579E-1,3.381656647E0
1.585863271E0,-9.090931892E0,5.647061467E-1,3.372085333E0
1.595863271E0,-9.105288506E0,5.593222976E-1,3.386442184E0
1.605863271E0,-9.138788223E0,5.832505226E-1,3.366701365E0
1.615863271E0,-9.153144836E0,5.880361795E-1,3.352344513E0
1.625863271E0,-9.147761345E0,5.880361795E-1,3.318845034E0
1.635863271E0,-9.143573761E0,5.880361795E-1,3.357130051E0
1.645863271E0,-9.100502968E0,5.641079545E-1,3.372085333E0
1.655863271E0,-9.090931892E0,5.497509837E-1,3.386442184E0
1.665863271E0,-9.071788788E0,5.545366406E-1,3.391826153E0
1.675863271E0,-9.086145401E0,5.641079545E-1,3.405584812E0
1.685863271E0,-9.105886459E0,5.641079545E-1,3.419941664E0
1.695863271E0,-9.125029564E0,6.023930907E-1,3.414557934E0
1.705863271E0,-9.120243073E0,5.880361795E-1,3.410370588E0
1.715863271E0,-9.138788223E0,6.167500615E-1,3.395415306E0
1.725863271E0,-9.153144836E0,6.119644046E-1,3.400201082E0
1.735863271E0,-9.114859581E0,5.976074338E-1,3.390629768E0
1.745863271E0,-9.124430656E0,5.976074338E-1,3.366701365E0
1.755863271E0,-9.105288506E0,5.784648657E-1,3.376870871E0
1.765863271E0,-9.138788223E0,5.832505226E-1,3.361915827E0
1.775863271E0,-9.167501450E0,5.928218365E-1,3.342773199E0
1.785863271E0,-9.166903496E0,5.928218365E-1,3.323630571E0
1.795863271E0,-9.209974289E0,5.784648657E-1,3.323630571E0
1.805863271E0,-9.190832138E0,6.023930907E-1,3.323032379E0
1.815863271E0,-9.162715912E0,6.119644046E-1,3.357130051E0
1.825863271E0,-9.129216194E0,6.311069727E-1,3.395415306E0
1.835863271E0,-9.105886459E0,6.412764788E-1,3.428914785E0
1.845863271E0,-9.086744308E0,6.173482537E-1,3.433700562E0
1.855863271E0,-9.096315384E0,5.934200287E-1,3.424129248E0
1.865863271E0,-9.095717430E0,5.641079545E-1,3.391227961E0
1.875863271E0,-9.124430656E0,5.593222976E-1,3.357728481E0
1.885863271E0,-9.129216194E0,5.736792088E-1,3.395415306E0
1.895863271E0,-9.129216194E0,5.736792088E-1,3.404986620E0
1.905863271E0,-9.105886459E0,6.263213158E-1,3.424129248E0
1.915863271E0,-9.081958771E0,6.747759581E-1,3.433700562E0
1.925863271E0,-9.072985649E0,7.034898400E-1,3.461816072E0
1.935863271E0,-9.058030128E0,6.987041831E-1,3.448057413E0
1.945863271E0,-9.072386742E0,6.550351977E-1,3.457628727E0
1.955863271E0,-9.062815666E0,6.406782866E-1,3.438486099E0
1.965863271E0,-9.072386742E0,6.215356588E-1,3.405584812E0
1.975863271E0,-9.081359863E0,5.880361795E-1,3.391227961E0
1.985863271E0,-9.100502968E0,5.784648657E-1,3.410370588E0
1.995863271E0,-9.096315384E0,5.688936114E-1,3.434298754E0
2.005863271E0,-9.081958771E0,5.545366406E-1,3.443870068E0
2.015863271E0,-9.067601204E0,5.551348329E-1,3.482155085E0
2.025863271E0,-9.053842545E0,5.694918036E-1,3.501297712E0
2.035863271E0,-9.068199158E0,5.647061467E-1,3.520440340E0
2.045863271E0,-9.091529846E0,5.688936114E-1,3.482155085E0
2.055863271E0,-9.110671997E0,5.641079545E-1,3.467798233E0
2.065863271E0,-9.158528328E0,5.641079545E-1,3.452843189E0
2.075863271E0,-9.168100357E0,5.449653864E-1,3.438486099E0
2.085863271E0,-9.162715912E0,5.258227587E-1,3.415156126E0
2.095863271E0,-9.148359299E0,5.449653864E-1,3.424727440E0
2.105863271E0,-9.125029564E0,5.545366406E-1,3.434298754E0
2.115863271E0,-9.086744308E0,5.545366406E-1,3.477369547E0
2.125863271E0,-9.049057007E0,5.736792088E-1,3.496512175E0
2.135863271E0,-9.025128365E0,5.455635786E-1,3.554538012E0
2.145863271E0,-9.001200676E0,5.503492355E-1,3.544966698E0
2.155863271E0,-9.034700394E0,5.593222976E-1,3.540181160E0
2.165863271E0,-9.053842545E0,5.688936114E-1,3.534797192E0
2.175863271E0,-9.087342262E0,5.641079545E-1,3.506083488E0
2.185863271E0,-9.111269951E0,5.976074338E-1,3.500699520E0
2.195863271E0,-9.120841980E0,6.023930907E-1,3.491128206E0
2.205863271E0,-9.106484413E0,6.311069727E-1,3.515056372E0
2.215863271E0,-9.072985649E0,6.550351977E-1,3.500699520E0
2.225863271E0,-9.063413620E0,6.364908218E-1,3.548556089E0
2.235863271E0,-9.034700394E0,5.982056856E-1,3.544368505E0
2.245863271E0,-9.044271469E0,5.790630579E-1,3.534797192E0
2.255863271E0,-9.029914856E0,6.125625968E-1,3.525225878E0
2.265863271E0,-9.039485931E0,6.221339107E-1,3.491726398E0
2.275863271E0,-9.082556725E0,6.215356588E-1,3.500699520E0
2.285863271E0,-9.106484413E0,6.358926296E-1,3.491128206E0
2.295863271E0,-9.111269951E0,6.454638839E-1,3.486342669E0
2.305863271E0,-9.106484413E0,5.976074338E-1,3.495913982E0
2.315863271E0,-9.072985649E0,6.125625968E-1,3.519842148E0
2.325863271E0,-9.053842545E0,6.029912829E-1,3.530011654E0
2.335863271E0,-9.025128365E0,6.173482537E-1,3.553939819E0
2.345863271E0,-9.016156197E0,6.556333899E-1,3.601198196E0
2.355863271E0,-9.006584167E0,6.508477330E-1,3.615555048E0
2.365863271E0,-9.044869423E0,6.747759581E-1,3.591626883E0
2.375863271E0,-9.035298347E0,6.795616150E-1,3.596412420E0
2.385863271E0,-9.064012527E0,6.843472719E-1,3.577269793E0
2.395863271E0,-9.059226990E0,6.652047038E-1,3.548556089E0
2.405863271E0,-9.034700394E0,6.412764788E-1,3.534198999E0
2.415863271E0,-9.034700394E0,6.269195080E-1,3.515654564E0
2.425863271E0,-9.015557289E0,6.173482537E-1,3.534797192E0
2.435863271E0,-8.992227554E0,6.173482537E-1,3.563511133E0
2.445863271E0,-9.016156197E0,6.269195080E-1,3.601796389E0
2.455863271E0,-9.006584167E0,6.317051649E-1,3.620938778E0
2.465863271E0,-9.021539688E0,6.747759581E-1,3.625126362E0
2.475863271E0,-9.016754150E0,7.034898400E-1,3.620340586E0
2.485863271E0,-8.983254433E0,7.034898400E-1,3.615555048E0
2.495863271E0,-8.949754715E0,6.939185858E-1,3.673580885E0
2.505863271E0,-8.935398102E0,6.556333899E-1,3.678366661E0
2.515863271E0,-8.949754715E0,6.364908218E-1,3.654438496E0
2.525863271E0,-8.978468895E0,6.412764788E-1,3.635295868E0
2.535863271E0,-9.006584167E0,6.412764788E-1,3.587439299E0
2.545863271E0,-9.035298347E0,6.508477330E-1,3.620340586E0
2.555863271E0,-9.045467377E0,6.843472719E-1,3.634697676E0
2.565863271E0,-9.031110764E0,6.939185858E-1,3.658625841E0
2.575863271E0,-9.040681839E0,6.843472719E-1,3.644268990E0
2.585863271E0,-9.011968613E0,6.652047038E-1,3.672982693E0
2.595863271E0,-8.997611046E0,6.747759581E-1,3.649054527E0
2.605863271E0,-8.997611046E0,6.604190469E-1,3.663411379E0
2.615863271E0,-8.964112282E0,6.556333899E-1,3.678366661E0
2.625863271E0,-8.959924698E0,6.317051649E-1,3.702294827E0
2.635863271E0,-8.931210518E0,6.508477330E-1,3.697509289E0
2.645863271E0,-8.955139160E0,6.412764788E-1,3.702294827E0
2.655863271E0,-8.978468895E0,6.364908218E-1,3.678366661E0
2.665863271E0,-9.007183075E0,6.317051649E-1,3.668795347E0
2.675863271E0,-9.049654961E0,6.119644046E-1,3.629911900E0
2.685863271E0,-9.078369141E0,5.880361795E-1,3.601796389E0
2.695863271E0,-9.107083321E0,5.784648657E-1,3.601198196E0
2.705863271E0,-9.130413055E0,5.688936114E-1,3.543770313E0
2.715863271E0,-9.135796547E0,5.784648657E-1,3.610769272E0
2.725863271E0,-9.111868858E0,5.976074338E-1,3.582055569E0
2.735863271E0,-9.068798065E0,5.928218365E-1,3.582653761E0
2.745863271E0,-9.016156197E0,5.790630579E-1,3.592225075E0
2.755863271E0,-8.973084450E0,5.790630579E-1,3.602394581E0
2.765863271E0,-8.968298912E0,5.359922647E-1,3.602394581E0
2.775863271E0,-8.962915421E0,5.407779217E-1,3.544966698E0
2.785863271E0,-8.991629601E0,5.599204898E-1,3.544966698E0
2.795863271E0,-9.010771751E0,5.790630579E-1,3.525225878E0
2.805863271E0,-9.044271469E0,5.838487148E-1,3.544368505E0
2.815863271E0,-9.087342262E0,6.023930907E-1,3.529413462E0
2.825863271E0,-9.120841980E0,6.119644046E-1,3.515056372E0
2.835863271E0,-9.149555206E0,6.119644046E-1,3.510270834E0
2.845863271E0,-9.153742790E0,6.071787477E-1,3.481556892E0
2.855863271E0,-9.139386177E0,6.023930907E-1,3.462414265E0
2.865863271E0,-9.125029564E0,6.071787477E-1,3.471985579E0
2.875863271E0,-9.120243073E0,6.119644046E-1,3.471985579E0
2.885863271E0,-9.111269951E0,6.167500615E-1,3.495913982E0
2.895863271E0,-9.072985649E0,6.311069727E-1,3.510270834E0
2.905863271E0,-9.053842545E0,5.880361795E-1,3.553939819E0
2.915863271E0,-9.025727272E0,6.023930907E-1,3.563511133E0
2.925863271E0,-9.005986214E0,6.077769399E-1,3.549154282E0
2.935863271E0,-9.005986214E0,5.742774606E-1,3.525824070E0
2.945863271E0,-9.010771751E0,6.652047038E-1,3.486940861E0
2.955863271E0,-9.049057007E0,6.263213158E-1,3.506083488E0
2.965863271E0,-9.091529846E0,6.598208547E-1,3.452843189E0
2.975863271E0,-9.144171715E0,6.741777658E-1,3.457030535E0
2.985863271E0,-9.144171715E0,6.933203340E-1,3.442673683E0
2.995863271E0,-9.153742790E0,6.741777658E-1,3.442673683E0
3.005863271E0,-9.134600639E0,6.741777658E-1,3.442673683E0
3.015863271E0,-9.081958771E0,6.598208547E-1,3.443271875E0
3.025863271E0,-9.067601204E0,6.406782866E-1,3.448057413E0
3.035863271E0,-9.034101486E0,6.221339107E-1,3.458226919E0
3.045863271E0,-9.058030128E0,6.215356588E-1,3.443870068E0
3.055863271E0,-9.081958771E0,6.215356588E-1,3.410370588E0
3.065863271E0,-9.101100922E0,6.550351977E-1,3.404986620E0
3.075863271E0,-9.124430656E0,6.693921089E-1,3.376272678E0
3.085863271E0,-9.134600639E0,6.693921089E-1,3.404986620E0
3.095863271E0,-9.129815102E0,6.550351977E-1,3.404986620E0
3.105863271E0,-9.120243073E0,6.406782866E-1,3.409772158E0
3.115863271E0,-9.101100922E0,6.263213158E-1,3.452843189E0
3.125863271E0,-9.077172279E0,6.263213158E-1,3.443870068E0
3.135863271E0,-9.049057007E0,6.215356588E-1,3.472583771E0
3.145863271E0,-9.048459053E0,6.311069727E-1,3.463012457E0
3.155863271E0,-9.039485931E0,6.502495408E-1,3.467798233E0
3.165863271E0,-9.062815666E0,6.502495408E-1,3.448057413E0
3.175863271E0,-9.081958771E0,6.646065116E-1,3.424129248E0
3.185863271E0,-9.120243073E0,6.502495408E-1,3.448057413E0
3.195863271E0,-9.110074043E0,6.693921089E-1,3.381058455E0
3.205863271E0,-9.129216194E0,6.741777658E-1,3.371487141E0
3.215863271E0,-9.143573761E0,6.406782866E-1,3.366701365E0
3.225863271E0,-9.134002686E0,6.598208547E-1,3.371487141E0
3.235863271E0,-9.119645119E0,6.885347366E-1,3.366103172E0
3.245863271E0,-9.124430656E0,6.981059909E-1,3.366103172E0
3.255863271E0,-9.110074043E0,6.933203340E-1,3.366103172E0
3.265863271E0,-9.138788223E0,6.741777658E-1,3.346960783E0
3.275863271E0,-9.157930374E0,6.311069727E-1,3.376272678E0
3.285863271E0,-9.157930374E0,6.263213158E-1,3.376272678E0
3.295863271E0,-9.148359299E0,6.263213158E-1,3.352344513E0
3.305863271E0,-9.100502968E0,6.502495408E-1,3.366701365E0
3.315863271E0,-9.067003250E0,6.263213158E-1,3.362514019E0
3.325863271E0,-9.096315384E0,5.641079545E-1,3.434298754E0
3.335863271E0,-9.014959335E0,6.795616150E-1,3.405584812E0
3.345863271E0,-9.024530411E0,7.034898400E-1,3.409772158E0
3.355863271E0,-9.043074608E0,6.933203340E-1,3.357130051E0
3.365863271E0,-9.128618240E0,6.598208547E-1,3.309273720E0
3.375863271E0,-9.161520004E0,6.167500615E-1,3.218346357E0
3.385863271E0,-9.185447693E0,6.071787477E-1,3.213560820E0
3.395863271E0,-9.180662155E0,6.071787477E-1,3.227917671E0
3.405863271E0,-9.186046600E0,6.071787477E-1,3.290131092E0
3.415863271E0,-9.166903496E0,5.928218365E-1,3.299702406E0
3.425863271E0,-9.152546883E0,6.071787477E-1,3.304488182E0
3.435863271E0,-9.152546883E0,6.023930907E-1,3.314059258E0
3.445863271E0,-9.142974854E0,6.358926296E-1,3.299702406E0
3.455863271E0,-9.147761345E0,6.215356588E-1,3.299702406E0
3.465863271E0,-9.138189316E0,6.119644046E-1,3.280559778E0
3.475863271E0,-9.142974854E0,6.263213158E-1,3.261417150E0
3.485863271E0,-9.156734467E0,6.119644046E-1,3.227917671E0
3.495863271E0,-9.171091080E0,6.119644046E-1,3.214159012E0
3.505863271E0,-9.180662155E0,6.167500615E-1,3.189632654E0
3.515863271E0,-9.195018768E0,6.406782866E-1,3.208775282E0
3.525863271E0,-9.190233231E0,6.263213158E-1,3.218346357E0
3.535863271E0,-9.176474571E0,6.598208547E-1,3.227917671E0
3.545863271E0,-9.166305542E0,6.550351977E-1,3.223132133E0
3.555863271E0,-9.162117958E0,6.358926296E-1,3.247060299E0
3.565863271E0,-9.132805824E0,6.454638839E-1,3.242274761E0
3.575863271E0,-9.132805824E0,6.358926296E-1,3.242274761E0
3.585863271E0,-9.128020287E0,6.406782866E-1,3.237488985E0
3.595863271E0,-9.171091080E0,6.693921089E-1,3.212962627E0
3.605863271E0,-9.166305542E0,6.741777658E-1,3.198605776E0
3.615863271E0,-9.171091080E0,6.646065116E-1,3.189034462E0
3.625863271E0,-9.151947975E0,6.693921089E-1,3.218346357E0
3.635863271E0,-9.166305542E0,6.406782866E-1,3.237488985E0
3.645863271E0,-9.185447693E0,6.406782866E-1,3.237488985E0
3.655863271E0,-9.190832138E0,6.406782866E-1,3.251846075E0
3.665863271E0,-9.186046600E0,6.358926296E-1,3.247060299E0
3.675863271E0,-9.161520004E0,6.167500615E-1,3.242274761E0
3.685863271E0,-9.156734467E0,6.311069727E-1,3.223132133E0
3.695863271E0,-9.133403778E0,6.215356588E-1,3.242872953E0
3.705863271E0,-9.152546883E0,6.311069727E-1,3.247060299E0
3.715863271E0,-9.157332420E0,6.358926296E-1,3.251846075E0
3.725863271E0,-9.152546883E0,6.550351977E-1,3.275774240E0
3.735863271E0,-9.152546883E0,6.454638839E-1,3.261417150E0
3.745863271E0,-9.157332420E0,6.311069727E-1,3.280559778E0
3.755863271E0,-9.152546883E0,6.263213158E-1,3.261417150E0
3.765863271E0,-9.147761345E0,6.454638839E-1,3.280559778E0
3.775863271E0,-9.176474571E0,6.358926296E-1,3.266202927E0
3.785863271E0,-9.166305542E0,6.358926296E-1,3.232703447E0
3.795863271E0,-9.171091080E0,6.454638839E-1,3.232703447E0
3.805863271E0,-9.176474571E0,6.454638839E-1,3.237488985E0
3.815863271E0,-9.162117958E0,6.789634228E-1,3.232703447E0
3.825863271E0,-9.147761345E0,6.741777658E-1,3.242274761E0
3.835863271E0,-9.147761345E0,6.646065116E-1,3.270988464E0
3.845863271E0,-9.152546883E0,6.502495408E-1,3.280559778E0
3.855863271E0,-9.152546883E0,6.358926296E-1,3.275774240E0
3.865863271E0,-9.152546883E0,6.358926296E-1,3.280559778E0
3.875863271E0,-9.142974854E0,6.358926296E-1,3.275774240E0
3.885863271E0,-9.138189316E0,6.215356588E-1,3.299702406E0
3.895863271E0,-9.157332420E0,6.263213158E-1,3.275774240E0
3.905863271E0,-9.152546883E0,6.454638839E-1,3.275774240E0
3.915863271E0,-9.147761345E0,6.502495408E-1,3.280559778E0
3.925863271E0,-9.147761345E0,6.502495408E-1,3.280559778E0
3.935863271E0,-9.162117958E0,6.550351977E-1,3.251846075E0
3.945863271E0,-9.162117958E0,6.502495408E-1,3.261417150E0
3.955863271E0,-9.185447693E0,6.454638839E-1,3.237488985E0
3.965863271E0,-9.190832138E0,6.646065116E-1,3.256033421E0
3.975863271E0,-9.190832138E0,6.502495408E-1,3.251846075E0
3.985863271E0,-9.166903496E0,6.406782866E-1,3.256631613E0
3.995863271E0,-9.142974854E0,6.358926296E-1,3.251846075E0
4.005863271E0,-9.142974854E0,6.167500615E-1,3.261417150E0
4.015863271E0,-9.133403778E0,6.263213158E-1,3.247658491E0
4.025863271E0,-9.128618240E0,6.263213158E-1,3.242872953E0
4.035863271E0,-9.137591362E0,6.358926296E-1,3.242274761E0
4.045863271E0,-9.156734467E0,6.311069727E-1,3.237488985E0
4.055863271E0,-9.176474571E0,6.550351977E-1,3.260818958E0
4.065863271E0,-9.195617676E0,6.550351977E-1,3.246462107E0
4.075863271E0,-9.161520004E0,6.406782866E-1,3.237488985E0
4.085863271E0,-9.157332420E0,6.358926296E-1,3.251846075E0
4.095863271E0,-9.147761345E0,6.263213158E-1,3.285345554E0
4.105863271E0,-9.114261627E0,6.263213158E-1,3.276372433E0
4.115863271E0,-9.100502968E0,6.550351977E-1,3.314059258E0
4.125863271E0,-9.123832703E0,6.502495408E-1,3.309273720E0
4.135863271E0,-9.142974854E0,6.502495408E-1,3.294916868E0
4.145863271E0,-9.186046600E0,6.646065116E-1,3.256033421E0
4.155863271E0,-9.200403214E0,6.454638839E-1,3.270390272E0
4.165863271E0,-9.209974289E0,6.502495408E-1,3.246462107E0
4.175863271E0,-9.186046600E0,6.598208547E-1,3.242274761E0
4.185863271E0,-9.157332420E0,6.358926296E-1,3.266202927E0
4.195863271E0,-9.128618240E0,6.263213158E-1,3.257229805E0
4.205863271E0,-9.114261627E0,6.406782866E-1,3.300300598E0
4.215863271E0,-9.138189316E0,6.358926296E-1,3.304488182E0
4.225863271E0,-9.152546883E0,6.598208547E-1,3.285345554E0
4.235863271E0,-9.166903496E0,6.693921089E-1,3.256631613E0
4.245863271E0,-9.185447693E0,6.215356588E-1,3.213560820E0
4.255863271E0,-9.156734467E0,6.023930907E-1,3.233301640E0
4.265863271E0,-9.157332420E0,5.736792088E-1,3.266801119E0
4.275863271E0,-9.147761345E0,5.880361795E-1,3.266801119E0
4.285863271E0,-9.171689034E0,6.023930907E-1,3.270988464E0
4.295863271E0,-9.190832138E0,6.167500615E-1,3.270988464E0
4.305863271E0,-9.166903496E0,6.502495408E-1,3.280559778E0
4.315863271E0,-9.181260109E0,6.693921089E-1,3.294318676E0
4.325863271E0,-9.171689034E0,6.598208547E-1,3.285345554E0
4.335863271E0,-9.166903496E0,6.454638839E-1,3.294916868E0
4.345863271E0,-9.171689034E0,6.119644046E-1,3.270988464E0
4.355863271E0,-9.171091080E0,6.071787477E-1,3.247060299E0
4.365863271E0,-9.190832138E0,6.023930907E-1,3.256631613E0
4.375863271E0,-9.181260109E0,5.922235847E-1,3.271586657E0
4.385863271E0,-9.166903496E0,5.880361795E-1,3.276372433E0
4.395863271E0,-9.162117958E0,5.928218365E-1,3.266801119E0
4.405863271E0,-9.162117958E0,6.023930907E-1,3.300300598E0
4.415863271E0,-9.147761345E0,6.023930907E-1,3.271586657E0
4.425863271E0,-9.123832703E0,5.928218365E-1,3.262015581E0
4.435863271E0,-9.114261627E0,6.023930907E-1,3.276372433E0
4.445863271E0,-9.138189316E0,6.119644046E-1,3.266801119E0
4.455863271E0,-9.147761345E0,6.263213158E-1,3.270988464E0
4.465863271E0,-9.147761345E0,6.311069727E-1,3.270988464E0
4.475863271E0,-9.157332420E0,6.406782866E-1,3.251846075E0
4.485863271E0,-9.147761345E0,6.550351977E-1,3.247060299E0
4.495863271E0,-9.138189316E0,6.215356588E-1,3.262015581E0
4.505863271E0,-9.142974854E0,6.119644046E-1,3.262015581E0
4.515863271E0,-9.147761345E0,6.023930907E-1,3.257229805E0
4.525863271E0,-9.142974854E0,6.071787477E-1,3.262015581E0
4.535863271E0,-9.166305542E0,5.784648657E-1,3.252444267E0
4.545863271E0,-9.147761345E0,5.880361795E-1,3.252444267E0
4.555863271E0,-9.157332420E0,5.736792088E-1,3.257229805E0
4.565863271E0,-9.138189316E0,5.880361795E-1,3.276372433E0
4.575863271E0,-9.138189316E0,5.928218365E-1,3.271586657E0
4.585863271E0,-9.128618240E0,6.023930907E-1,3.281157970E0
4.595863271E0,-9.133403778E0,6.119644046E-1,3.295515060E0
4.605863271E0,-9.152546883E0,6.119644046E-1,3.294916868E0
4.615863271E0,-9.171689034E0,6.167500615E-1,3.304488182E0
4.625863271E0,-9.147761345E0,6.167500615E-1,3.290131092E0
4.635863271E0,-9.147761345E0,6.023930907E-1,3.295515060E0
4.645863271E0,-9.138788223E0,6.071787477E-1,3.319443226E0
4.655863271E0,-9.123832703E0,6.215356588E-1,3.309871912E0
4.665863271E0,-9.119645119E0,6.358926296E-1,3.309871912E0
4.675863271E0,-9.123832703E0,6.358926296E-1,3.305086374E0
4.685863271E0,-9.119047165E0,6.358926296E-1,3.276372433E0
4.695863271E0,-9.128618240E0,6.167500615E-1,3.276372433E0
4.705863271E0,-9.109476089E0,6.215356588E-1,3.285943747E0
4.715863271E0,-9.109476089E0,6.358926296E-1,3.281157970E0
4.725863271E0,-9.133403778E0,6.837490797E-1,3.275774240E0
4.735863271E0,-9.123832703E0,7.411768436E-1,3.275176048E0
4.745863271E0,-9.138189316E0,7.459624410E-1,3.241676569E0
4.755863271E0,-9.162117958E0,7.220342159E-1,3.256033421E0
4.765863271E0,-9.152546883E0,7.220342159E-1,3.246462107E0
4.775863271E0,-9.162117958E0,7.172485590E-1,3.265604734E0
4.785863271E0,-9.147761345E0,7.316055298E-1,3.270390272E0
4.795863271E0,-9.143573761E0,7.555337548E-1,3.294318676E0
4.805863271E0,-9.129216194E0,7.698906660E-1,3.308675528E0
4.815863271E0,-9.134002686E0,7.794619799E-1,3.327219963E0
4.825863271E0,-9.139386177E0,7.603194118E-1,3.370888948E0
4.835863271E0,-9.134600639E0,7.411768436E-1,3.366103172E0
4.845863271E0,-9.134002686E0,7.028916478E-1,3.337389469E0
4.855863271E0,-9.129216194E0,6.693921089E-1,3.357130051E0
4.865863271E0,-9.114859581E0,6.454638839E-1,3.328416348E0
4.875863271E0,-9.124430656E0,6.454638839E-1,3.314059258E0
4.885863271E0,-9.133403778E0,6.263213158E-1,3.275774240E0
4.895863271E0,-9.152546883E0,6.215356588E-1,3.266202927E0
4.905863271E0,-9.181260109E0,6.406782866E-1,3.251846075E0
4.915863271E0,-9.195617676E0,6.640082598E-1,3.251846075E0
4.925863271E0,-9.205188751E0,6.640082598E-1,3.237488985E0
4.935863271E0,-9.219545364E0,6.592226624E-1,3.242274761E0
4.945863271E0,-9.205188751E0,6.687939167E-1,3.247060299E0
4.955863271E0,-9.167501450E0,7.076773047E-1,3.294318676E0
4.965863271E0,-9.143573761E0,7.268198729E-1,3.318246841E0
4.975863271E0,-9.105288506E0,7.363911867E-1,3.323630571E0
4.985863271E0,-9.100502968E0,7.459624410E-1,3.309273720E0
4.995863271E0,-9.076574326E0,7.220342159E-1,3.333201885E0
5.005863271E0,-9.100502968E0,7.172485590E-1,3.337987661E0
5.015863271E0,-9.105288506E0,6.741777658E-1,3.328416348E0
5.025863271E0,-9.095717430E0,6.693921089E-1,3.328416348E0
5.035863271E0,-9.104690552E0,6.263213158E-1,3.295515060E0
5.045863271E0,-9.119047165E0,6.167500615E-1,3.295515060E0
5.055863271E0,-9.119047165E0,6.119644046E-1,3.300300598E0
5.065863271E0,-9.128618240E0,6.119644046E-1,3.271586657E0
5.075863271E0,-9.138788223E0,6.454638839E-1,3.318845034E0
5.085863271E0,-9.153144836E0,6.598208547E-1,3.304488182E0
5.095863271E0,-9.143573761E0,6.789634228E-1,3.309273720E0
5.105863271E0,-9.134002686E0,6.598208547E-1,3.304488182E0
5.115863271E0,-9.114859581E0,6.646065116E-1,3.314059258E0
5.125863271E0,-9.095717430E0,6.311069727E-1,3.314657450E0
5.135863271E0,-9.100502968E0,6.215356588E-1,3.314657450E0
5.145863271E0,-9.119047165E0,6.215356588E-1,3.290729284E0
5.155863271E0,-9.157332420E0,6.215356588E-1,3.275774240E0
5.165863271E0,-9.209376335E0,6.119644046E-1,3.218346357E0
5.175863271E0,-9.223134995E0,5.976074338E-1,3.165704250E0
5.185863271E0,-9.227920532E0,5.832505226E-1,3.170490026E0
5.195863271E0,-9.204590797E0,5.401797295E-1,3.218944550E0
5.205863271E0,-9.195018768E0,5.353940725E-1,3.266801119E0
5.215863271E0,-9.176474571E0,5.018945336E-1,3.300300598E0
5.225863271E0,-9.166903496E0,4.971089065E-1,3.310470104E0
5.235863271E0,-9.157332420E0,5.018945336E-1,3.329612732E0
5.245863271E0,-9.143573761E0,5.306084156E-1,3.348157167E0
5.255863271E0,-9.110074043E0,5.593222976E-1,3.386442184E0
5.265863271E0,-9.100502968E0,5.976074338E-1,3.362514019E0
5.275863271E0,-9.100502968E0,5.736792088E-1,3.329612732E0
5.285863271E0,-9.105288506E0,5.688936114E-1,3.348755360E0
5.295863271E0,-9.114261627E0,5.593222976E-1,3.315255880E0
5.305863271E0,-9.133403778E0,5.306084156E-1,3.300898790E0
5.315863271E0,-9.152546883E0,5.306084156E-1,3.276970625E0
5.325863271E0,-9.181260109E0,5.491527915E-1,3.271586657E0
5.335863271E0,-9.190233231E0,5.395814776E-1,3.242872953E0
5.345863271E0,-9.204590797E0,5.108676553E-1,3.233301640E0
5.355863271E0,-9.185447693E0,5.108676553E-1,3.209971666E0
5.365863271E0,-9.171091080E0,5.108676553E-1,3.229114056E0
5.375863271E0,-9.175876617E0,4.869394004E-1,3.253042459E0
5.385863271E0,-9.162117958E0,4.630111754E-1,3.282354355E0
5.395863271E0,-9.162117958E0,4.677968323E-1,3.291327477E0
5.405863271E0,-9.162117958E0,4.773681164E-1,3.296113253E0
5.415863271E0,-9.162117958E0,5.012963414E-1,3.300898790E0
5.425863271E0,-9.138189316E0,4.821537733E-1,3.343969584E0
5.435863271E0,-9.124430656E0,4.821537733E-1,3.349353552E0
5.445863271E0,-9.109476089E0,4.342973232E-1,3.311068296E0
5.455863271E0,-9.094520569E0,3.720839322E-1,3.263810158E0
5.465863271E0,-9.123234749E0,3.625126183E-1,3.254238844E0
5.475863271E0,-9.123234749E0,3.577269912E-1,3.292523861E0
5.485863271E0,-9.161520004E0,3.816552162E-1,3.258426189E0
5.495863271E0,-9.161520004E0,4.007977843E-1,3.272783279E0
5.505863271E0,-9.175876617E0,4.295116663E-1,3.277568817E0
5.515863271E0,-9.199805260E0,4.199403822E-1,3.291327477E0
5.525863271E0,-9.205188751E0,4.247260094E-1,3.296113253E0
5.535863271E0,-9.199805260E0,3.529413342E-1,3.287140131E0
5.545863271E0,-9.199805260E0,3.385843933E-1,3.249453068E0
5.555863271E0,-9.199805260E0,3.002992272E-1,3.259024382E0
5.565863271E0,-9.218349457E0,2.476571500E-1,3.244667530E0
5.575863271E0,-9.251849174E0,2.620140910E-1,3.215953588E0
5.585863271E0,-9.261420250E0,2.476571500E-1,3.215953588E0
5.595863271E0,-9.270393372E0,1.465603858E-1,3.187838078E0
5.605863271E0,-9.245866776E0,5.084748194E-2,3.126821041E0
5.615863271E0,-9.206983566E0,-2.572284266E-2,3.074777126E0
5.625863271E0,-9.158528328E0,-1.597209126E-1,3.014358282E0
5.635863271E0,-9.148957253E0,-2.458625287E-1,3.019742250E0
5.645863271E0,-9.125029564E0,-2.745763958E-1,3.024527788E0
5.655863271E0,-9.134600639E0,-2.697907388E-1,3.024527788E0
5.665863271E0,-9.105886459E0,-2.937189937E-1,3.058625460E0
5.675863271E0,-9.077172279E0,-3.511467278E-1,3.064009428E0
5.685863271E0,-9.096913338E0,-3.607180119E-1,3.121437073E0
5.695863271E0,-9.126225471E0,-3.702892959E-1,3.226123095E0
5.705863271E0,-9.208778381E0,-3.367897868E-1,3.382853031E0
5.715863271E0,-9.324830055E0,-2.650051117E-1,3.525225878E0
5.725863271E0,-9.381061554E0,-1.746760458E-1,3.371487141E0
5.735863271E0,-9.471389771E0,-6.460621208E-2,3.273979664E0
5.745863271E0,-9.470791817E0,-2.632104978E-2,3.197409153E0
5.755863271E0,-9.342177391E0,-2.572284266E-2,3.260220766E0
5.765863271E0,-9.185447693E0,-6.400800496E-2,3.352942705E0
5.775863271E0,-8.961718559E0,-7.776673883E-2,3.540779352E0
5.785863271E0,-8.781659126E0,-4.366901144E-2,3.713660717E0
5.795863271E0,-8.606385231E0,1.435693540E-2,3.943969965E0
5.805863271E0,-8.498707771E0,1.627119333E-1,4.187439442E0
5.815863271E0,-8.472386360E0,4.408775866E-1,4.453042984E0
5.825863271E0,-8.473583221E0,5.892325640E-1,4.561916351E0
5.835863271E0,-8.535796165E0,7.280163169E-1,4.498506546E0
5.845863271E0,-8.601598740E0,8.907282352E-1,4.329214573E0
5.855863271E0,-8.710473061E0,8.805587292E-1,4.185046673E0
5.865863271E0,-8.837890625E0,7.657032609E-1,4.008575916E0
5.875863271E0,-8.966505051E0,6.406782866E-1,3.941577196E0
5.885863271E0,-9.089137077E0,4.007977843E-1,3.765704632E0
5.895863271E0,-9.178269386E0,1.280160099E-1,3.661616802E0
5.905863271E0,-9.214759827E0,-2.219343036E-1,3.516252756E0
5.915863271E0,-9.170493126E0,-4.660021961E-1,3.384049416E0
5.925863271E0,-9.055039406E0,-7.483552694E-1,3.396611691E0
5.935863271E0,-8.892925262E0,-8.871390224E-1,3.475574970E0
5.945863271E0,-8.778668404E0,-9.391828775E-1,3.614956856E0
5.955863271E0,-8.679366112E0,-1.006181955E0,3.759722471E0
5.965863271E0,-8.580063820E0,-9.966106415E-1,3.893720627E0
5.975863271E0,-8.485547066E0,-9.290133715E-1,4.003790379E0
5.985863271E0,-8.467002869E0,-7.950153351E-1,4.041477680E0
5.995863271E0,-8.476573944E0,-6.418746710E-1,4.064209461E0
6.005863271E0,-8.544171333E0,-4.217349887E-1,4.061816216E0
6.015863271E0,-8.645268440E0,-2.398804724E-1,4.055236340E0
6.025863271E0,-8.697312355E0,-2.350948304E-1,4.021138668E0
6.035863271E0,-8.734998703E0,-2.590230405E-1,3.954139471E0
6.045863271E0,-8.810971260E0,-6.281159073E-2,3.861417532E0
6.055863271E0,-8.805587769E0,-4.366901144E-2,3.756133318E0
6.065863271E0,-8.781061172E0,-1.776670814E-1,3.714857101E0
6.075863271E0,-8.675776482E0,-2.494517565E-1,3.692125320E0
6.085863271E0,-8.570492744E0,-3.164508045E-1,3.678964853E0
6.095863271E0,-8.508278847E0,-3.786641955E-1,3.717848301E0
6.105863271E0,-8.498707771E0,-4.743770957E-1,3.775874138E0
6.115863271E0,-8.523234367E0,-5.078766346E-1,3.852444410E0
6.125863271E0,-8.585447311E0,-4.648058116E-1,3.837489367E0
6.135863271E0,-8.628518105E0,-3.978067636E-1,3.832105398E0
6.145863271E0,-8.710473061E0,-3.308077157E-1,3.878765583E0
6.155863271E0,-8.801998138E0,-2.883351147E-1,3.987638950E0
6.165863271E0,-8.918049812E0,-3.457628787E-1,4.149752617E0
6.175863271E0,-9.037691116E0,-4.277170599E-1,4.187439442E0
6.185863271E0,-9.205786705E0,-4.277170599E-1,4.277170658E0
6.195863271E0,-9.373882294E0,-4.474578202E-1,4.342973232E0
6.205863271E0,-9.488738060E0,-5.000999570E-1,4.399802685E0
6.215863271E0,-9.608977318E0,-4.863412082E-1,4.447061062E0
6.225863271E0,-9.699904442E0,-4.767699242E-1,4.475176334E0
6.235863271E0,-9.646664619E0,-5.533402562E-1,4.466203690E0
6.245863271E0,-9.628120422E0,-5.437689424E-1,4.523631096E0
6.255863271E0,-9.500103951E0,-3.996013701E-1,4.624129772E0
6.265863271E0,-9.400801659E0,-1.746760458E-1,4.723432064E0
6.275863271E0,-9.339784622E0,-1.166501045E-1,4.861617565E0
6.285863271E0,-9.297312737E0,-4.007977992E-2,4.899902344E0
6.295863271E0,-9.322437286E0,7.956135273E-2,5.013561726E0
6.305863271E0,-9.470791817E0,6.939185411E-2,5.055436134E0
6.315863271E0,-9.856036186E0,-2.691925503E-2,4.800002098E0
6.325863271E0,-1.074915791E1,1.244267747E-1,4.568496704E0
6.335863271E0,-1.162672520E1,8.739784956E-1,4.647459984E0
6.345863271E0,-1.237448215E1,7.142575383E-1,4.304089546E0
6.355863271E0,-1.286022568E1,-3.409772366E-2,3.599403381E0
6.365863271E0,-1.318265820E1,-7.148557901E-1,2.240280151E0
6.375863271E0,-1.274477196E1,-7.471588850E-1,1.278365493E0
6.385863271E0,-1.183430290E1,-1.032503009E0,1.047458172E0
6.395863271E0,-1.114576817E1,-1.294517040E0,1.159322619E0
6.405863271E0,-1.052303600E1,-1.527817249E0,1.127617717E0
6.415863271E0,-9.959526062E0,-1.794616938E0,6.412764788E-1
6.425863271E0,-9.223732948E0,-1.840678811E0,1.447657645E-1
6.435863271E0,-8.553742409E0,-1.643270969E0,0.000000000E0
6.445863271E0,-7.737790108E0,-1.205384374E0,1.124626622E-1
6.455863271E0,-7.167101860E0,-6.675975323E-1,3.990031779E-1
6.465863271E0,-6.917052269E0,-1.782652885E-1,6.981059909E-1
6.475863271E0,-6.973881721E0,4.295116663E-1,1.066002488E0
6.485863271E0,-7.336394310E0,1.123430252E0,1.398006678E0
6.495863271E0,-7.870592117E0,1.811964989E0,1.657029629E0
6.505863271E0,-8.300103188E0,2.342573404E0,2.032104731E0
6.515863271E0,-8.882756233E0,2.848655462E0,2.359323025E0
6.525863271E0,-9.446864128E0,2.517249346E0,2.458027124E0
6.535863271E0,-9.795019150E0,1.716252089E0,2.528017044E0
6.545863271E0,-1.004746246E1,1.054636598E0,2.598007202E0
6.555863271E0,-1.048534870E1,1.920240223E-1,2.572284460E0
6.565863271E0,-1.050628567E1,-5.503492355E-1,2.372483730E0
6.575863271E0,-1.042851925E1,-1.019940615E0,2.337787628E0
6.585863271E0,-1.019103146E1,-1.508076429E0,2.094916344E0
6.595863271E0,-9.913464546E0,-1.588834286E0,2.039881229E0
6.605863271E0,-9.483952522E0,-1.228116274E0,2.073979139E0
6.615863271E0,-9.063413620E0,-8.775677085E-1,2.045265198E0
6.625863271E0,-8.472985268E0,-1.722832322E-1,2.130210400E0
6.635863271E0,-8.041080475E0,5.371887088E-1,2.391027927E0
6.645863271E0,-7.804789066E0,9.355936646E-1,2.662015200E0
6.655863271E0,-7.677371502E0,1.314257860E0,2.765504837E0
6.665863271E0,-7.703094482E0,1.826321840E0,2.900100946E0
6.675863271E0,-7.709076405E0,1.913061738E0,3.038286448E0
6.685863271E0,-7.858627796E0,2.027318954E0,3.131606579E0
6.695863271E0,-8.222336769E0,1.954936147E0,3.182454109E0
6.705863271E0,-8.513663292E0,1.709671736E0,3.182454109E0
6.715863271E0,-8.723632812E0,1.460219979E0,3.254238844E0
6.725863271E0,-8.982656479E0,1.225125194E0,3.392424345E0
6.735863271E0,-9.092725754E0,1.023529887E0,3.450450182E0
6.745863271E0,-9.073583603E0,8.129615188E-1,3.519243956E0
6.755863271E0,-8.939585686E0,7.124629617E-1,3.516252756E0
6.765863271E0,-8.752944946E0,7.896314859E-1,3.521636724E0
6.775863271E0,-8.519644737E0,9.242277741E-1,3.570091486E0
6.785863271E0,-8.185248375E0,1.169492126E0,3.546761274E0
6.795863271E0,-7.878966808E0,1.256231904E0,3.524627686E0
6.805863271E0,-7.783852100E0,1.337587833E0,3.553341627E0
6.815863271E0,-7.717451096E0,1.563111424E0,3.580859184E0
6.825863271E0,-7.739584923E0,1.534397483E0,3.370290756E0
6.835863271E0,-7.907680511E0,1.591227055E0,3.440280676E0
6.845863271E0,-8.124231339E0,1.537986755E0,3.587439299E0
6.855863271E0,-8.408378601E0,1.470389485E0,3.858426571E0
6.865863271E0,-8.815158844E0,1.445863128E0,3.960719585E0
6.875863271E0,-9.178867340E0,1.401595831E0,4.001397610E0
6.885863271E0,-9.594620705E0,1.424925923E0,3.955335855E0
6.895863271E0,-9.894919395E0,1.418943882E0,3.809971809E0
6.905863271E0,-1.008993530E1,1.275374413E0,3.742972851E0
6.915863271E0,-1.015274620E1,1.083350420E0,3.820141315E0
6.925863271E0,-1.020239735E1,8.488538265E-1,4.137190342E0
6.935863271E0,-1.021974564E1,8.530412912E-1,4.581058979E0
6.945863271E0,-1.020359421E1,9.541380405E-1,4.896313190E0
6.955863271E0,-1.013838959E1,1.049850941E0,5.148756027E0
6.965863271E0,-1.007856941E1,1.030708313E0,5.412564754E0
6.975863271E0,-1.006002426E1,9.493523836E-1,5.504090309E0
6.985863271E0,-1.026999474E1,9.774680734E-1,5.468796253E0
6.995863271E0,-1.103151035E1,9.086744189E-1,4.995615482E0
7.005863271E0,-1.176670551E1,3.326023519E-1,5.009374142E0
7.015863271E0,-1.240439224E1,2.973082066E-1,4.608576298E0
7.025863271E0,-1.296670628E1,3.248256743E-1,3.667598963E0
7.035863271E0,-1.373480225E1,3.469592929E-1,2.228914261E0
7.045863271E0,-1.377189064E1,5.048855543E-1,1.372283816E0
7.055863271E0,-1.295952702E1,1.105484009E0,6.137589812E-1
7.065863271E0,-1.197069359E1,1.184447169E0,1.232303679E-1
7.075863271E0,-1.074676514E1,9.385846853E-1,-3.493520916E-1
7.085863271E0,-9.623334885E0,4.570291340E-1,-2.045863420E-1
7.095863271E0,-8.715856552E0,1.854437590E-2,9.631111473E-2
7.105863271E0,-7.710272789E0,-6.400800347E-1,7.010970116E-1
7.115863271E0,-7.340581894E0,-9.840483069E-1,1.289133191E0
7.125863271E0,-7.383054256E0,-1.132403374E0,1.838884234E0
7.135863271E0,-7.284948349E0,-1.390828133E0,2.238485575E0
7.145863271E0,-7.363911629E0,-1.884347796E0,2.695514679E0
7.155863271E0,-7.606184959E0,-2.196611166E0,3.173480988E0
7.165863271E0,-8.016553879E0,-1.996212244E0,3.647259951E0
7.175863271E0,-8.430512428E0,-1.422533035E0,3.807579041E0
7.185863271E0,-8.899505615E0,-3.936193287E-1,3.595814228E0
7.195863271E0,-8.973683357E0,6.933203340E-1,3.000001431E0
7.205863271E0,-9.116654396E0,1.363310695E0,2.697907448E0
7.215863271E0,-9.292527199E0,1.923231244E0,2.415554523E0
7.225863271E0,-9.516255379E0,2.224726915E0,2.206780672E0
7.235863271E0,-9.595816612E0,2.612364054E0,1.892722726E0
7.245863271E0,-9.494720459E0,2.621935368E0,1.759322882E0
7.255863271E0,-9.375079155E0,2.210369825E0,1.853839397E0
7.265863271E0,-9.020941734E0,1.320239902E0,2.134995937E0
7.275863271E0,-8.338388443E0,4.887340367E-1,2.499303341E0
7.285863271E0,-7.847859859E0,1.399801224E-1,2.858824968E0
7.295863271E0,-7.509873867E0,-2.231307179E-1,3.212962627E0
7.305863271E0,-7.207181931E0,-8.398807645E-1,3.176471949E0
7.315863271E0,-7.104888439E0,-1.390828133E0,3.123830080E0
7.325863271E0,-7.131209850E0,-1.606182218E0,3.454637766E0
7.335863271E0,-7.288537979E0,-1.841277003E0,3.440878868E0
7.345863271E0,-7.570890903E0,-1.975873351E0,3.521038532E0
7.355863271E0,-7.890930653E0,-2.063211441E0,3.519842148E0
7.365863271E0,-8.297112465E0,-1.977667928E0,3.420539856E0
7.375863271E0,-8.641678810E0,-1.638485312E0,3.377469063E0
7.385863271E0,-8.704490662E0,-1.241276741E0,3.321835995E0
7.395863271E0,-8.633303642E0,-9.200403094E-1,3.296113253E0
7.405863271E0,-8.385646820E0,-5.407779217E-1,3.352344513E0
7.415863271E0,-8.075776100E0,-4.013960063E-1,3.434896946E0
7.425863271E0,-7.843074322E0,-3.146561682E-1,3.650849104E0
7.435863271E0,-7.629515171E0,-1.800599098E-1,3.818346739E0
7.445863271E0,-7.587640762E0,-1.465603858E-1,3.985844374E0
7.455863271E0,-7.682157040E0,-2.141576260E-1,3.861417532E0
7.465863271E0,-7.814958572E0,-7.537391037E-2,3.605983734E0
7.475863271E0,-8.134400368E0,6.281159073E-2,3.478565931E0
7.485863271E0,-8.584849358E0,1.668993831E-1,3.551547050E0
7.495863271E0,-9.126225471E0,3.625126183E-1,3.608376503E0
7.505863271E0,-9.591031075E0,4.857429862E-1,3.690330744E0
7.515863271E0,-1.017129040E1,6.424728632E-1,3.857230186E0
7.525863271E0,-1.067976570E1,7.465606928E-1,4.086941242E0
7.535863271E0,-1.099202919E1,8.368897438E-1,4.261018753E0
7.545863271E0,-1.116550827E1,9.182456732E-1,4.378865242E0
7.555863271E0,-1.123370457E1,7.357929349E-1,4.584648132E0
7.565863271E0,-1.111645603E1,9.182456732E-1,4.813760757E0
7.575863271E0,-1.099322510E1,8.129615188E-1,5.054239750E0
7.585863271E0,-1.083230782E1,6.215356588E-1,5.257629395E0
7.595863271E0,-1.138086224E1,3.667000830E-1,5.174479008E0
7.605863271E0,-1.225902843E1,1.135992527E0,5.377869129E0
7.615863271E0,-1.288953781E1,1.747358680E0,5.063212872E0
7.625863271E0,-1.376351547E1,1.223330617E0,3.799204111E0
7.635863271E0,-1.456690598E1,6.699903309E-2,1.637288928E0
7.645863271E0,-1.441615868E1,-7.369893789E-1,-3.625126183E-1
7.655863271E0,-1.370190048E1,-1.214357495E0,-1.046859860E0
7.665863271E0,-1.243430328E1,-1.604387641E0,-1.021137118E0
7.675863271E0,-1.107577801E1,-1.950748682E0,-9.373882413E-1
7.685863271E0,-9.818947792E0,-1.976471543E0,-8.189435601E-1
7.695863271E0,-8.815756798E0,-1.777867198E0,-7.178468108E-1
7.705863271E0,-7.610970497E0,-1.392024517E0,-1.627119333E-1
7.715863271E0,-6.702894211E0,-8.051848412E-1,3.553341627E-1
7.725863271E0,-6.272784710E0,-1.483550072E-1,8.219345808E-1
7.735863271E0,-6.059225082E0,5.324030519E-1,1.545165181E0
7.745863271E0,-6.102295876E0,1.432702541E0,2.484348059E0
7.755863271E0,-6.535397053E0,2.212164640E0,3.273979664E0
7.765863271E0,-7.030711174E0,2.378465652E0,3.584448338E0
7.775863271E0,-7.835896015E0,2.405385017E0,3.836891174E0
7.785863271E0,-8.641080856E0,2.461018085E0,4.002593994E0
7.795863271E0,-9.430113792E0,2.129014015E0,3.445066452E0
7.805863271E0,-9.807581902E0,1.620539188E0,2.982653379E0
7.815863271E0,-1.011864853E1,8.536394835E-1,2.541775942E0
7.825863271E0,-1.017129040E1,1.489532143E-1,2.135594130E0
7.835863271E0,-1.017368412E1,-3.726821244E-1,1.967498422E0
7.845863271E0,-1.011326504E1,-7.944171429E-1,1.731805444E0
7.855863271E0,-9.924830437E0,-1.090528965E0,1.567897081E0
7.865863271E0,-9.561120987E0,-1.214357495E0,1.566700578E0
7.875863271E0,-9.242876053E0,-1.156331539E0,1.773679733E0
7.885863271E0,-8.839685440E0,-7.962117195E-1,2.137388945E0
7.895863271E0,-8.427521706E0,-2.638086975E-1,2.480758905E0
7.905863271E0,-8.005187988E0,4.797609448E-1,2.693121910E0
7.915863271E0,-7.691728592E0,1.150947690E0,2.843271494E0
7.925863271E0,-7.378268719E0,1.716850281E0,2.956332445E0
7.935863271E0,-7.222734928E0,2.095514536E0,3.088535786E0
7.945863271E0,-7.175477028E0,2.230110645E0,3.197409153E0
7.955863271E0,-7.186244488E0,2.368894339E0,3.296711445E0
7.965863271E0,-7.239484787E0,2.364108801E0,3.382254839E0
7.975863271E0,-7.440482140E0,2.277369022E0,3.419941664E0
7.985863271E0,-7.602595806E0,2.195414782E0,3.366701365E0
7.995863271E0,-7.874181271E0,2.132603168E0,3.265006542E0
8.005863271E0,-8.093124390E0,1.993221283E0,3.187838078E0
8.015863271E0,-8.269595146E0,1.748555183E0,3.174079180E0
8.025863271E0,-8.402995110E0,1.575673699E0,3.150749207E0
8.035863271E0,-8.522636414E0,1.345364571E0,3.194418192E0
8.045863271E0,-8.675178528E0,1.119840980E0,3.257229805E0
8.055863271E0,-8.933005333E0,8.991031051E-1,3.257229805E0
8.065863271E0,-9.233304024E0,7.214360237E-1,3.132204771E0
8.075863271E0,-9.680762291E0,5.479564071E-1,2.943770170E0
8.085863271E0,-1.020060253E1,5.228317380E-1,2.778067112E0
8.095863271E0,-1.057328510E1,5.742774606E-1,2.645863533E0
8.105863271E0,-1.093819046E1,7.698906660E-1,2.842673302E0
8.115863271E0,-1.119601727E1,9.320043921E-1,3.317648649E0
8.125863271E0,-1.136830044E1,1.176072359E0,3.911666870E0
8.135863271E0,-1.142871952E1,1.439282775E0,4.234697819E0
8.145863271E0,-1.141256714E1,1.683350682E0,4.543372154E0
8.155863271E0,-1.126660538E1,1.736590981E0,4.854438782E0
8.165863271E0,-1.095793152E1,1.670190215E0,5.182255745E0
8.175863271E0,-1.078205872E1,1.498505235E0,5.366502762E0
8.185863271E0,-1.102373409E1,1.128814101E0,5.161916733E0
8.195863271E0,-1.119601727E1,1.800599098E-1,5.420341492E0
8.205863271E0,-1.118764210E1,-2.745763958E-1,5.075176716E0
8.215863271E0,-1.175234795E1,-4.007977843E-1,3.303889751E0
8.225863271E0,-1.266760349E1,-5.030909777E-1,1.052842021E0
8.235863271E0,-1.300558949E1,-6.340979785E-2,-5.485545993E-1
8.245863271E0,-1.249532032E1,2.440679073E-1,-1.044467092E0
8.255863271E0,-1.119960594E1,2.327020019E-1,-1.034895778E0
8.265863271E0,-9.937990189E0,6.340979785E-2,-8.051848412E-1
8.275863271E0,-9.056235313E0,-2.985046208E-1,-3.475574851E-1
8.285863271E0,-8.575278282E0,-4.893322289E-1,-2.273181453E-2
8.295863271E0,-8.203792572E0,-6.939185858E-1,8.560323119E-1
8.305863271E0,-8.071588516E0,-9.762716293E-1,1.780858278E0
8.315863271E0,-8.209774017E0,-1.216152072E0,2.446063042E0
8.325863271E0,-8.370692253E0,-1.494317770E0,2.919841766E0
8.335863271E0,-8.508278847E0,-1.662413478E0,3.460021496E0
8.345863271E0,-8.544171333E0,-1.413560033E0,3.711267948E0
8.355863271E0,-8.578866959E0,-8.291130662E-1,3.706482172E0
8.365863271E0,-8.688937187E0,1.621137410E-1,3.397808075E0
8.375863271E0,-8.759525299E0,1.110269666E0,2.970091105E0
8.385863271E0,-8.891130447E0,1.847259045E0,2.500499725E0
8.395863271E0,-9.134002686E0,2.330609322E0,2.208575249E0
8.405863271E0,-9.337391853E0,2.574079037E0,1.828116536E0
8.415863271E0,-9.186644554E0,2.507678032E0,1.542772412E0
8.425863271E0,-8.788239479E0,2.020140409E0,1.515853167E0
8.435863271E0,-8.698508263E0,1.479362607E0,1.773081541E0
8.445863271E0,-8.549555779E0,6.652047038E-1,1.952543259E0
8.455863271E0,-8.200202942E0,7.716853172E-2,2.016551256E0
8.465863271E0,-7.808378696E0,-1.328016520E-1,2.187638044E0
8.475863271E0,-7.356733322E0,-4.911268353E-1,2.628515720E0
8.485863271E0,-7.066005230E0,-1.012762189E0,2.882753134E0
8.495863271E0,-7.018148899E0,-1.520040631E0,3.053839922E0
8.505863271E0,-7.105486870E0,-1.774278045E0,3.232105255E0
8.515863271E0,-7.241279602E0,-1.831705689E0,3.479762316E0
8.525863271E0,-7.451848030E0,-1.683948994E0,3.530011654E0
8.535863271E0,-7.757531166E0,-1.560120344E0,3.426522017E0
8.545863271E0,-7.957930088E0,-1.469791293E0,3.343371391E0
8.555863271E0,-8.478368759E0,-1.135394335E0,3.145963669E0
8.565863271E0,-8.721838951E0,-9.014959335E-1,3.032902718E0
8.575863271E0,-8.746364594E0,-6.759724021E-1,2.988037348E0
8.585863271E0,-8.545966148E0,-4.743770957E-1,3.011965513E0
8.595863271E0,-8.298309326E0,-3.924229145E-1,3.122633457E0
8.605863271E0,-8.055437088E0,-3.104687333E-1,3.214757204E0
8.615863271E0,-8.041678429E0,-3.583251834E-1,3.305684566E0
8.625863271E0,-8.042875290E0,-8.075776696E-2,3.409173965E0
8.635863271E0,-8.321041107E0,-1.579262912E-1,3.503092289E0
8.645863271E0,-8.751151085E0,-2.452643216E-1,3.558127165E0
8.655863271E0,-9.239884377E0,-1.651047617E-1,3.602394581E0
8.665863271E0,-1.001456070E1,1.016949583E-2,3.571287870E0
8.675863271E0,-1.082812023E1,3.726821244E-1,3.515654564E0
8.685863271E0,-1.148913765E1,5.670989752E-1,3.586242914E0
8.695863271E0,-1.178225899E1,5.808576941E-1,3.793820381E0
8.705863271E0,-1.184686470E1,5.186443329E-1,4.142574310E0
8.715863271E0,-1.166321564E1,4.043870270E-1,4.575077057E0
8.725863271E0,-1.135932732E1,4.480560422E-1,4.839483738E0
8.735863271E0,-1.081675434E1,4.779663086E-1,5.163113117E0
8.745863271E0,-1.014018440E1,5.946164131E-1,5.487340450E0
8.755863271E0,-9.844670296E0,3.320041299E-1,5.691926956E0
8.765863271E0,-1.043150997E1,5.605186820E-1,5.437689304E0
8.775863271E0,-1.145324516E1,2.387438774E0,5.283950806E0
8.785863271E0,-1.237149143E1,2.610569477E0,4.024129391E0
8.795863271E0,-1.339502144E1,1.693520188E0,1.782054663E0
8.805863271E0,-1.400937843E1,8.632107973E-1,-2.422732860E-1
8.815863271E0,-1.404586887E1,1.974078715E-1,-2.167897224E0
8.825863271E0,-1.300379467E1,-3.846462369E-1,-2.519642353E0
8.835863271E0,-1.183968639E1,-7.363911867E-1,-2.117049932E0
8.845863271E0,-1.044108200E1,-9.296116233E-1,-1.685145378E0
8.855863271E0,-9.407979965E0,-1.051645517E0,-1.060618639E0
8.865863271E0,-8.529216766E0,-1.040279627E0,-2.566302419E-1
8.875863271E0,-7.993224144E0,-8.422735929E-1,2.614158690E-1
8.885863271E0,-7.453044415E0,-1.800599098E-1,7.142575383E-1
8.895863271E0,-7.120441914E0,5.533402562E-1,1.442273855E0
8.905863271E0,-7.024130821E0,9.702895880E-1,2.481357098E0
8.915863271E0,-7.175477028E0,1.247856975E0,3.467798233E0
8.925863271E0,-7.606783390E0,1.198804140E0,4.205385685E0
8.935863271E0,-8.119445801E0,8.626125455E-1,4.400400639E0
8.945863271E0,-8.687142372E0,7.124629617E-1,4.244867325E0
8.955863271E0,-9.040681839E0,3.092723191E-1,3.733999729E0
8.965863271E0,-9.439684868E0,2.177468538E-1,2.718844652E0
8.975863271E0,-9.675976753E0,2.093719877E-2,1.820339799E0
8.985863271E0,-9.578469276E0,-2.213360928E-2,1.582253933E0
8.995863271E0,-9.305088997E0,-4.546362907E-2,1.479362607E0
9.005863271E0,-9.055637360E0,-3.032902777E-1,1.487737536E0
9.015863271E0,-8.730812073E0,-5.371887088E-1,1.582253933E0
9.025863271E0,-8.523234367E0,-5.180460811E-1,1.936989903E0
9.035863271E0,-8.206783295E0,-1.483550072E-1,2.357528448E0
9.045863271E0,-7.986045361E0,4.797609448E-1,2.684148788E0
9.055863271E0,-7.928019524E0,1.222134113E0,2.994617462E0
9.065863271E0,-7.838887215E0,1.706082582E0,3.144168854E0
9.075863271E0,-7.658827305E0,2.113460541E0,3.242872953E0
9.085863271E0,-7.631907940E0,2.280958176E0,3.375674486E0
9.095863271E0,-7.631907940E0,2.209173441E0,3.438486099E0
9.105863271E0,-7.660621643E0,2.118246317E0,3.443870068E0
9.115863271E0,-7.741977692E0,2.041675806E0,3.491726398E0
9.125863271E0,-7.832904816E0,1.998006940E0,3.548556089E0
9.135863271E0,-7.919644833E0,2.050648928E0,3.552145243E0
9.145863271E0,-7.962117195E0,2.141576290E0,3.479762316E0
9.155863271E0,-7.933403492E0,2.084148407E0,3.485146284E0
9.165863271E0,-7.885547161E0,1.921436548E0,3.510270834E0
9.175863271E0,-7.870592117E0,1.758724689E0,3.497708559E0
9.185863271E0,-7.850253105E0,1.581655741E0,3.407977581E0
9.195863271E0,-7.983652592E0,1.423131227E0,3.408575773E0
9.205863271E0,-8.251648903E0,1.283749342E0,3.426522017E0
9.215863271E0,-8.766703606E0,9.996016622E-1,3.367897987E0
9.225863271E0,-9.665208817E0,4.085744619E-1,3.389433384E0
9.235863271E0,-1.065344429E1,1.375873014E-2,3.347558975E0
9.245863271E0,-1.117926693E1,-1.698904037E-1,3.359523058E0
9.255863271E0,-1.155015469E1,-3.188436031E-1,3.683152199E0
9.265863271E0,-1.161535931E1,-3.194418252E-1,4.141377926E0
9.275863271E0,-1.146042442E1,-1.800599098E-1,4.451846600E0
9.285863271E0,-1.128036404E1,-1.411765367E-1,4.639084816E0
9.295863271E0,-1.089571762E1,-1.196411322E-3,4.980062008E0
9.305863271E0,-1.034477043E1,1.435693651E-1,5.446064472E0
9.315863271E0,-9.832706451E0,3.361915946E-1,5.931209087E0
9.325863271E0,-9.746564865E0,4.755735099E-1,5.892325878E0
9.335863271E0,-1.046441174E1,7.034898400E-1,5.331208706E0
9.345863271E0,-1.105842972E1,3.625126183E-1,4.890331268E0
9.355863271E0,-1.140598774E1,1.890329868E-1,4.110270977E0
9.365863271E0,-1.271306705E1,3.726821244E-1,2.379662037E0
9.375863271E0,-1.390469265E1,7.483552694E-1,4.815555513E-1
9.385863271E0,-1.403031540E1,1.457229018E0,-7.573283911E-1
9.395863271E0,-1.292602825E1,1.392622828E0,-1.341775298E0
9.405863271E0,-1.123190975E1,9.367900491E-1,-1.398604870E0
9.415863271E0,-1.002831936E1,5.611169338E-1,-1.052842021E0
9.425863271E0,-9.193822861E0,2.805584669E-1,-6.484549642E-1
9.435863271E0,-8.659625053E0,2.273181453E-2,2.506481707E-1
9.445863271E0,-8.150551796E0,-3.684946895E-1,1.327418327E0
9.455863271E0,-7.872984886E0,-8.470591903E-1,2.015953064E0
9.465863271E0,-7.789834023E0,-1.220339537E0,2.487339020E0
9.475863271E0,-7.847261906E0,-1.349551916E0,3.166302681E0
9.485863271E0,-8.070392609E0,-1.163509965E0,3.593421459E0
9.495863271E0,-8.349754333E0,-7.232306600E-1,3.731606960E0
9.505863271E0,-8.622536659E0,-1.686939895E-1,3.587439299E0
9.515863271E0,-8.821739197E0,5.593222976E-1,3.141177893E0
9.525863271E0,-9.031110764E0,1.301097274E0,2.818745136E0
9.535863271E0,-9.193224907E0,1.760519266E0,2.594418049E0
9.545863271E0,-9.455238342E0,2.018345833E0,2.385644197E0
9.555863271E0,-9.586245537E0,2.142772675E0,2.011167526E0
9.565863271E0,-9.411569595E0,2.118844509E0,1.687538147E0
9.575863271E0,-9.109476089E0,1.851446509E0,1.663011789E0
9.585863271E0,-8.669196129E0,1.052842021E0,1.834098577E0
9.595863271E0,-8.354539871E0,1.962114573E-1,2.162513494E0
9.605863271E0,-8.063214302E0,-3.014956415E-1,2.378465652E0
9.615863271E0,-7.780860901E0,-6.119644046E-1,2.468794823E0
9.625863271E0,-7.284350395E0,-1.022931695E0,2.675773859E0
9.635863271E0,-6.927819729E0,-1.443470240E0,3.082553864E0
9.645863271E0,-6.882356167E0,-1.759322882E0,3.429512978E0
9.655863271E0,-6.988238335E0,-1.788634896E0,3.548556089E0
9.665863271E0,-7.127022266E0,-1.692921996E0,3.546761274E0
9.675863271E0,-7.342376232E0,-1.554736495E0,3.510869026E0
9.685863271E0,-7.681559086E0,-1.368694544E0,3.435495138E0
9.695863271E0,-7.900502205E0,-1.244267821E0,3.270390272E0
9.705863271E0,-8.436494827E0,-9.056833982E-1,3.240479946E0
9.715863271E0,-8.580063820E0,-6.999006271E-1,3.132802963E0
9.725863271E0,-8.504091263E0,-5.706881881E-1,3.160918713E0
9.735863271E0,-8.140980721E0,-4.067798555E-1,3.166900873E0
9.745863271E0,-7.892725468E0,-3.918247223E-1,3.259622574E0
9.755863271E0,-7.746165276E0,-3.194418252E-1,3.436691523E0
9.765863271E0,-7.718049526E0,-2.955136001E-1,3.479762316E0
9.775863271E0,-7.819744587E0,-4.540380836E-1,3.122035265E0
9.785863271E0,-8.067401886E0,-3.445664644E-1,2.889931440E0
9.795863271E0,-8.646464348E0,-3.266202807E-1,3.014956474E0
9.805863271E0,-9.263813019E0,-4.097708762E-1,3.087937593E0
9.815863271E0,-1.011565781E1,-2.584248483E-1,3.066402197E0
9.825863271E0,-1.089212894E1,6.101697683E-2,3.202194929E0
9.835863271E0,-1.136231804E1,2.847459018E-1,3.373879910E0
9.845863271E0,-1.169910812E1,4.564309120E-1,3.614358664E0
9.855863271E0,-1.173141098E1,5.760720372E-1,4.052843571E0
9.865863271E0,-1.157348537E1,7.728816867E-1,4.558925152E0
9.875863271E0,-1.127557850E1,9.409775138E-1,4.999204636E0
9.885863271E0,-1.077308559E1,1.105484009E0,5.493920803E0
9.895863271E0,-1.024427223E1,1.192822099E0,5.769095421E0
9.905863271E0,-1.028554821E1,1.283749342E0,5.505286694E0
9.915863271E0,-1.104526901E1,1.573879123E0,5.349753380E0
9.925863271E0,-1.212263775E1,2.974876642E0,5.150550842E0
9.935863271E0,-1.303669643E1,2.795415163E0,4.018147469E0
9.945863271E0,-1.418225956E1,1.006181955E0,1.676770449E0
9.955863271E0,-1.457707596E1,-2.159522474E-1,-1.040877849E-1
9.965863271E0,-1.416969776E1,-9.906286001E-1,-1.266401410E0
9.975863271E0,-1.295653629E1,-1.586441398E0,-1.559522152E0
9.985863271E0,-1.187976646E1,-1.689332843E0,-1.632503271E0
9.995863271E0,-1.074796104E1,-1.452443361E0,-1.478166223E0
1.000586327E1,-9.683753014E0,-1.550549030E0,-1.164108157E0
1.001586327E1,-8.489136696E0,-1.470987678E0,-3.774677813E-1
1.002586327E1,-7.551748276E0,-1.181456208E0,1.716850251E-1
1.003586327E1,-6.854838848E0,-2.793620527E-1,7.142575383E-1
1.004586327E1,-6.434898376E0,5.886343718E-1,1.194018483E0
1.005586327E1,-6.217749596E0,1.393221021E0,1.968096614E0
1.006586327E1,-6.383452415E0,1.795215130E0,2.838485956E0
1.007586327E1,-6.934998035E0,1.937588096E0,3.646063566E0
1.008586327E1,-7.582256794E0,1.730608940E0,3.963112593E0
1.009586327E1,-8.222336769E0,1.570888042E0,3.902693748E0
1.010586327E1,-8.922237396E0,1.344168067E0,3.541377544E0
1.011586327E1,-9.446864128E0,6.628118753E-1,2.906681299E0
1.012586327E1,-9.909874916E0,3.409772366E-2,2.344367981E0
1.013586327E1,-1.010668468E1,-3.876372576E-1,1.973480463E0
1.014586327E1,-1.012821960E1,-7.034898400E-1,1.750947952E0
1.015586327E1,-1.002233791E1,-9.762716293E-1,1.753340840E0
1.016586327E1,-9.711869240E0,-1.076171994E0,1.789831281E0
1.017586327E1,-9.364909172E0,-9.798609018E-1,2.044667006E0
1.018586327E1,-8.914461136E0,-7.298108935E-1,2.466402054E0
1.019586327E1,-8.506484032E0,-1.154536903E-1,2.775674343E0
1.020586327E1,-8.130811691E0,3.978067636E-1,2.884547710E0
1.021586327E1,-7.942974567E0,1.274776220E0,3.061018467E0
1.022586327E1,-7.663014412E0,1.820937991E0,3.211766243E0
1.023586327E1,-7.448258877E0,1.936391711E0,3.260220766E0
1.024586327E1,-7.376473904E0,1.927418590E0,3.279961586E0
1.025586327E1,-7.267002583E0,1.927418590E0,3.290131092E0
1.026586327E1,-7.377072334E0,1.884347796E0,3.361915827E0
1.027586327E1,-7.578069210E0,1.773679733E0,3.394218922E0
1.028586327E1,-7.807780266E0,1.639083505E0,3.427120209E0
1.029586327E1,-7.945367813E0,1.518844128E0,3.360121250E0
1.030586327E1,-7.950153351E0,1.509272933E0,3.340978622E0
1.031586327E1,-7.936394691E0,1.490130305E0,3.389433384E0
1.032586327E1,-7.931608677E0,1.456630826E0,3.418147087E0
1.033586327E1,-7.959724426E0,1.375274777E0,3.399602890E0
1.034586327E1,-8.102695465E0,1.283749342E0,3.370290756E0
1.035586327E1,-8.298907280E0,1.182652593E0,3.369692564E0
1.036586327E1,-8.661419868E0,1.076171994E0,3.296711445E0
1.037586327E1,-9.181859016E0,9.744769931E-1,3.198007345E0
1.038586327E1,-9.783653259E0,8.584251404E-1,3.132204771E0
1.039586327E1,-1.033759212E1,6.993024349E-1,3.077169895E0
1.040586327E1,-1.090229797E1,6.352944374E-1,3.150151014E0
1.041586327E1,-1.133001518E1,5.533402562E-1,3.443870068E0
1.042586327E1,-1.156869888E1,5.096712112E-1,3.992424488E0
1.043586327E1,-1.154716396E1,6.340979934E-1,4.331008911E0
1.044586327E1,-1.139641571E1,8.021938205E-1,4.540979385E0
1.045586327E1,-1.112542915E1,7.836494446E-1,4.795814991E0
1.046586327E1,-1.100818062E1,6.975077987E-1,5.132006168E0
1.047586327E1,-1.148614693E1,6.675975323E-1,5.057230473E0
1.048586327E1,-1.209990597E1,9.631111473E-2,5.453841209E0
1.049586327E1,-1.225843048E1,-7.088736892E-1,5.142774105E0
1.050586327E1,-1.242473125E1,-8.572286963E-1,3.800400496E0
1.051586327E1,-1.310429287E1,-6.340979934E-1,1.313659668E0
1.052586327E1,-1.332503128E1,1.555334777E-1,-6.951149702E-1
1.053586327E1,-1.245703506E1,6.125625968E-1,-1.180259824E0
1.054586327E1,-1.114217854E1,6.394818425E-1,-1.133001566E0
1.055586327E1,-9.718449593E0,5.617151260E-1,-9.170492887E-1
1.056586327E1,-8.700901031E0,3.002992272E-1,-7.549355626E-1
1.057586327E1,-8.058428764E0,-1.148554832E-1,4.037888348E-1
1.058586327E1,-7.926823139E0,-2.195414752E-1,1.385444283E0
1.059586327E1,-8.148757935E0,-4.360919297E-1,2.331207514E0
1.060586327E1,-8.347361565E0,-9.822536707E-1,2.825923443E0
1.061586327E1,-8.532207489E0,-1.207777262E0,3.266202927E0
1.062586327E1,-8.874979019E0,-1.074377418E0,3.692723513E0
1.063586327E1,-9.082556725E0,-5.144568682E-1,3.787240028E0
1.064586327E1,-9.120841980E0,3.140579760E-1,3.513859987E0
1.065586327E1,-8.894122124E0,1.013958573E0,3.123231649E0
1.066586327E1,-8.706883430E0,1.660618901E0,2.833101988E0
1.067586327E1,-8.878568649E0,2.139183521E0,2.575275421E0
1.068586327E1,-9.234500885E0,2.521436930E0,2.173281193E0
1.069586327E1,-9.227322578E0,2.679363251E0,1.752144337E0
1.070586327E1,-9.004191399E0,2.483749866E0,1.424925923E0
1.071586327E1,-8.662017822E0,1.545763373E0,1.353141189E0
1.072586327E1,-8.642276764E0,9.900303483E-1,1.424327731E0
1.073586327E1,-8.665008545E0,2.715853751E-1,1.476969719E0
1.074586327E1,-8.273782730E0,-3.882354796E-1,1.752144337E0
1.075586327E1,-7.825128078E0,-1.244267821E0,2.133799553E0
1.076586327E1,-7.319644451E0,-1.257428288E0,2.319243431E0
1.077586327E1,-6.943373203E0,-1.453041553E0,2.547757864E0
1.078586327E1,-6.733402729E0,-1.931606054E0,2.777468920E0
1.079586327E1,-6.701099873E0,-2.046461582E0,2.969492912E0
1.080586327E1,-6.884748936E0,-2.037488461E0,3.206980467E0
1.081586327E1,-7.177869797E0,-1.899302959E0,3.337987661E0
1.082586327E1,-7.756932735E0,-1.454836130E0,3.282952785E0
1.083586327E1,-8.205587387E0,-1.130608678E0,3.114856958E0
1.084586327E1,-8.511270523E0,-8.775677085E-1,2.934198856E0
1.085586327E1,-8.650053978E0,-4.995017350E-1,2.854039192E0
1.086586327E1,-8.526823044E0,-3.122633696E-1,2.920439959E0
1.087586327E1,-8.388637543E0,-1.298106313E-1,2.982055187E0
1.088586327E1,-8.217551231E0,3.349951655E-2,3.096910715E0
1.089586327E1,-8.152944565E0,2.392822690E-2,3.369692564E0
1.090586327E1,-8.148159027E0,1.579262912E-1,3.368496180E0
1.091586327E1,-8.310273170E0,2.536391914E-1,3.214159012E0
1.092586327E1,-8.744570732E0,1.423729509E-1,3.168695450E0
1.093586327E1,-9.379266739E0,2.093719877E-2,3.031706333E0
1.094586327E1,-1.025324535E1,3.349951655E-2,2.867797852E0
1.095586327E1,-1.092203903E1,1.034895778E-1,2.752344131E0
1.096586327E1,-1.153938675E1,2.123630047E-1,2.776272535E0
1.097586327E1,-1.180140114E1,2.261217386E-1,3.242274761E0
1.098586327E1,-1.172423267E1,2.889333367E-1,3.787240028E0
1.099586327E1,-1.142812061E1,5.335994363E-1,4.394418716E0
1.100586327E1,-1.111167049E1,8.410771489E-1,4.853242397E0
1.101586327E1,-1.073240757E1,1.157527924E0,5.149952412E0
1.102586327E1,-1.039382362E1,1.297508121E0,5.285147190E0
1.103586327E1,-1.024367332E1,1.197009563E0,5.018945694E0
1.104586327E1,-1.111585712E1,2.167299032E0,5.020740032E0
1.105586327E1,-1.219143105E1,3.707080364E0,4.548157692E0
1.106586327E1,-1.282194042E1,3.428316593E0,3.265006542E0
1.107586327E1,-1.407518101E1,1.720439434E0,1.242473125E0
1.108586327E1,-1.445264912E1,7.088736892E-1,-1.036690354E0
1.109586327E1,-1.391127300E1,1.830509305E-1,-2.252842426E0
1.110586327E1,-1.263649654E1,-8.051848412E-1,-2.303689957E0
1.111586327E1,-1.131864929E1,-1.511067510E0,-1.892722726E0
1.112586327E1,-1.011565781E1,-1.613958836E0,-1.554138303E0
1.113586327E1,-9.273384094E0,-1.669592023E0,-9.834501147E-1
1.114586327E1,-8.418548584E0,-1.456630826E0,-2.243271172E-1
1.115586327E1,-7.797610760E0,-8.470591903E-1,3.296113312E-1
1.116586327E1,-7.387839794E0,-2.614158690E-1,9.786644578E-1
1.117586327E1,-7.160521984E0,5.503492057E-2,1.804188251E0
1.118586327E1,-7.222734928E0,2.991028428E-1,2.953939438E0
1.119586327E1,-7.563114166E0,4.516452849E-1,3.681357622E0
1.120586327E1,-8.018946648E0,3.786641955E-1,3.860221148E0
1.121586327E1,-8.289336205E0,2.488535494E-1,3.668197155E0
1.122586327E1,-8.860024452E0,2.811566591E-1,3.209971666E0
1.123586327E1,-9.231510162E0,4.522434771E-1,2.307877541E0
1.124586327E1,-9.384650230E0,6.149554253E-1,1.684547186E0
1.125586327E1,-9.242277145E0,6.873382926E-1,1.183250785E0
1.126586327E1,-8.921639442E0,6.400800347E-1,1.166501045E0
1.127586327E1,-8.745168686E0,3.050848842E-1,1.337587833E0
1.128586327E1,-8.645866394E0,5.623133108E-2,1.555334687E0
1.129586327E1,-8.551948547E0,-2.069791555E-1,1.801197290E0
1.130586327E1,-8.420941353E0,-5.383851007E-3,2.158924341E0
1.131586327E1,-8.328219414E0,3.924229145E-1,2.429313183E0
1.132586327E1,-8.398807526E0,9.523434043E-1,2.706880569E0
1.133586327E1,-8.559126854E0,1.593619823E0,2.906681299E0
1.134586327E1,-8.541180611E0,1.938784599E0,2.951546669E0
1.135586327E1,-8.379066467E0,2.020738840E0,2.971287489E0
1.136586327E1,-8.255238533E0,2.102094650E0,3.062214851E0
1.137586327E1,-8.155337334E0,2.035693884E0,3.154338360E0
1.138586327E1,-8.117053032E0,1.916052699E0,3.193820000E0
1.139586327E1,-8.107481003E0,1.834696770E0,3.189632654E0
1.140586327E1,-8.165507317E0,1.786242127E0,3.256631613E0
1.141586327E1,-8.218149185E0,1.709671736E0,3.314059258E0
1.142586327E1,-8.213961601E0,1.623530149E0,3.410370588E0
1.143586327E1,-8.181060791E0,1.575673699E0,3.492324591E0
1.144586327E1,-8.086544037E0,1.499103427E0,3.632304668E0
1.145586327E1,-7.967501163E0,1.398604870E0,3.743571043E0
1.146586327E1,-7.953742504E0,1.322034478E0,3.839882135E0
1.147586327E1,-8.044071198E0,1.140179992E0,3.797409534E0
1.148586327E1,-8.309076309E0,9.379864931E-1,3.519842148E0
1.149586327E1,-8.689535141E0,7.555337548E-1,3.312862873E0
1.150586327E1,-9.104690552E0,6.011967063E-1,3.211168051E0
1.151586327E1,-9.749555588E0,6.520441771E-1,3.134597778E0
1.152586327E1,-1.043450165E1,7.704889178E-1,3.200400352E0
1.153586327E1,-1.105484104E1,7.262216806E-1,3.640679598E0
1.154586327E1,-1.134018517E1,7.393822074E-1,4.102494240E0
1.155586327E1,-1.139701462E1,8.446664214E-1,4.607379913E0
1.156586327E1,-1.118883896E1,8.979067206E-1,4.909473896E0
1.157586327E1,-1.098066330E1,7.788637877E-1,5.218147755E0
1.158586327E1,-1.119003487E1,7.351947427E-1,5.130809784E0
1.159586327E1,-1.210289669E1,5.126622319E-1,5.059025288E0
1.160586327E1,-1.248455238E1,-4.414757788E-1,5.206781864E0
1.161586327E1,-1.267478180E1,-5.036891699E-1,4.503292084E0
1.162586327E1,-1.320060444E1,-3.086741269E-1,2.486740828E0
1.163586327E1,-1.404168129E1,-1.333998591E-1,4.869394004E-1
1.164586327E1,-1.366122246E1,4.851447940E-1,-6.568298340E-1
1.165586327E1,-1.229013538E1,8.572286963E-1,-1.194616675E0
1.166586327E1,-1.053858948E1,8.470591903E-1,-1.373480201E0
1.167586327E1,-9.367302895E0,4.378865361E-1,-1.166501045E0
1.168586327E1,-8.519046783E0,9.990034252E-2,-7.136593461E-1
1.169586327E1,-8.061419487E0,-2.679961324E-1,2.476571500E-1
1.170586327E1,-7.716254711E0,-5.545366406E-1,1.422533035E0
1.171586327E1,-7.731808186E0,-8.757730722E-1,2.304288149E0
1.172586327E1,-7.869395256E0,-1.249651670E0,2.888735056E0
1.173586327E1,-8.146365166E0,-1.278963685E0,3.527618885E0
1.174586327E1,-8.432307243E0,-9.780662656E-1,3.891327858E0
1.175586327E1,-8.701499939E0,-4.372883439E-1,3.957130432E0
1.176586327E1,-8.968897820E0,1.800599098E-1,3.711866140E0
1.177586327E1,-9.147162437E0,1.103689432E0,3.020938635E0
1.178586327E1,-9.168100357E0,1.922633052E0,2.398206472E0
1.179586327E1,-9.229117393E0,2.511865616E0,2.078166485E0
1.180586327E1,-9.405587196E0,2.683550596E0,1.980060697E0
1.181586327E1,-9.639486313E0,2.903690338E0,1.809572101E0
1.182586327E1,-9.469595909E0,2.899502754E0,1.519442320E0
1.183586327E1,-9.067003250E0,2.493321180E0,1.472782373E0
1.184586327E1,-8.565108299E0,1.588834286E0,1.821536183E0
1.185586327E1,-8.416155815E0,7.178468108E-1,2.598605394E0
1.186586327E1,-7.991429329E0,-2.105683982E-1,2.985644341E0
1.187586327E1,-7.551748276E0,-7.746763229E-1,3.150151014E0
1.188586327E1,-7.113263607E0,-1.544566989E0,2.953341246E0
1.189586327E1,-6.870391846E0,-2.066202402E0,3.198007345E0
1.190586327E1,-6.905686378E0,-2.468794823E0,3.553939819E0
1.191586327E1,-6.901498795E0,-2.454437733E0,3.601796389E0
1.192586327E1,-7.101299286E0,-2.267797709E0,3.474976778E0
1.193586327E1,-7.398607731E0,-2.000399828E0,3.442075491E0
1.194586327E1,-7.742575645E0,-1.474576950E0,3.306880951E0
1.195586327E1,-8.044071198E0,-1.000798106E0,3.143570662E0
1.196586327E1,-8.368298531E0,-5.754738450E-1,2.956930637E0
1.197586327E1,-8.498109818E0,-2.739782035E-1,2.896511793E0
1.198586327E1,-8.393424034E0,-7.716853172E-2,2.934198856E0
1.199586327E1,-8.130811691E0,-1.914258115E-2,3.007179976E0
1.200586327E1,-7.931010723E0,4.366901144E-2,3.127419233E0
1.201586327E1,-7.856235027E0,7.238288224E-2,3.347558975E0
1.202586327E1,-7.942974567E0,6.281159073E-2,3.452244759E0
1.203586327E1,-8.145168304E0,-8.135596663E-2,3.595216036E0
1.204586327E1,-8.551948547E0,-2.404786795E-1,3.689134359E0
1.205586327E1,-9.183054924E0,-2.853440940E-1,3.708875179E0
1.206586327E1,-9.814162254E0,-1.956132501E-1,3.670589924E0
1.207586327E1,-1.053559780E1,-2.452643216E-2,3.525824070E0
1.208586327E1,-1.121934700E1,-5.503492057E-2,3.492324591E0
1.209586327E1,-1.151127148E1,-1.130608693E-1,3.528815269E0
1.210586327E1,-1.148076344E1,-8.913264424E-2,3.906881094E0
1.211586327E1,-1.116491032E1,2.392822644E-3,4.476971149E0
1.212586327E1,-1.079641533E1,1.184447184E-1,5.056632519E0
1.213586327E1,-1.045065308E1,2.386840582E-1,5.498108387E0
1.214586327E1,-1.002891827E1,4.743770957E-1,5.910272121E0
1.215586327E1,-1.012463093E1,3.876372576E-1,5.967101574E0
1.216586327E1,-1.096810055E1,1.286142230E0,5.921638012E0
1.217586327E1,-1.185404301E1,2.539382935E0,5.753541946E0
1.218586327E1,-1.286620712E1,2.771486759E0,4.794020176E0
1.219586327E1,-1.445922947E1,1.977667928E0,2.647658348E0
1.220586327E1,-1.512563038E1,1.104287624E0,-3.110669367E-2
1.221586327E1,-1.483071518E1,5.497509837E-1,-9.804590940E-1
1.222586327E1,-1.348654652E1,-2.949153781E-1,-1.405185103E0
1.223586327E1,-1.195872974E1,-9.427721500E-1,-1.533201098E0
1.224586327E1,-1.088734341E1,-1.088734269E0,-1.496112347E0
1.225586327E1,-9.638887405E0,-1.095912814E0,-8.518448472E-1
1.226586327E1,-8.277371407E0,-1.125823021E0,-5.802594870E-2
1.227586327E1,-7.015157700E0,-9.457631707E-1,5.611169338E-1
1.228586327E1,-6.239883423E0,-5.036891699E-1,9.930213690E-1
1.229586327E1,-5.714658737E0,1.680957973E-1,1.555932879E0
1.230586327E1,-5.529214859E0,8.871390224E-1,2.125424623E0
1.231586327E1,-5.737390518E0,1.643270969E0,2.834896564E0
1.232586327E1,-6.302694798E0,1.986641049E0,3.464209080E0
1.233586327E1,-7.079763889E0,1.980060697E0,3.831507206E0
1.234586327E1,-8.182256699E0,1.915454507E0,4.153940201E0
1.235586327E1,-9.099306107E0,1.779063582E0,4.067200184E0
1.236586327E1,-1.011565781E1,1.379462242E0,3.255435228E0
1.237586327E1,-1.080239773E1,1.052243710E0,2.440679073E0
1.238586327E1,-1.111705399E1,4.911268353E-1,1.878963947E0
1.239586327E1,-1.103749275E1,1.896311939E-1,1.518245935E0
1.240586327E1,-1.060439205E1,-5.383851007E-2,1.269990563E0
1.241586327E1,-1.013240719E1,-1.962114573E-1,1.494317770E0
1.242586327E1,-9.514460564E0,-8.494520187E-2,1.965703845E0
1.243586327E1,-8.944371223E0,1.034895778E-1,2.360519648E0
1.244586327E1,-8.211568832E0,3.493520916E-1,2.812762976E0
1.245586327E1,-7.583453178E0,6.526423693E-1,3.106482029E0
1.246586327E1,-7.307680130E0,8.398807645E-1,3.326621771E0
1.247586327E1,-7.152146816E0,1.213759303E0,3.497110367E0
1.248586327E1,-6.999604225E0,1.467996716E0,3.491726398E0
1.249586327E1,-7.033702374E0,1.635494232E0,3.524029493E0
1.250586327E1,-7.128817081E0,1.649851203E0,3.413361549E0
1.251586327E1,-7.390830994E0,1.519442320E0,3.359523058E0
1.252586327E1,-7.654041290E0,1.470987678E0,3.353540897E0
1.253586327E1,-7.945965767E0,1.513460279E0,3.394218922E0
1.254586327E1,-8.137989998E0,1.537388563E0,3.464209080E0
1.255586327E1,-8.209774017E0,1.646860242E0,3.467798233E0
1.256586327E1,-8.138587952E0,1.762313843E0,3.515056372E0
1.257586327E1,-7.999804497E0,1.695314884E0,3.540779352E0
1.258586327E1,-7.856235027E0,1.624128342E0,3.503690481E0
1.259586327E1,-7.774878979E0,1.537986755E0,3.519243956E0
1.260586327E1,-7.789236069E0,1.442273855E0,3.553341627E0
1.261586327E1,-7.865806103E0,1.331605792E0,3.587439299E0
1.262586327E1,-8.133204460E0,1.173081279E0,3.581457376E0
1.263586327E1,-8.543573380E0,9.517452121E-1,3.522833109E0
1.264586327E1,-9.154939651E0,7.064808607E-1,3.467798233E0
1.265586327E1,-9.669994354E0,5.850451589E-1,3.360121250E0
1.266586327E1,-1.026341438E1,5.359922647E-1,3.385245800E0
1.267586327E1,-1.066241741E1,4.630111754E-1,3.707678795E0
1.268586327E1,-1.081555843E1,4.342973232E-1,4.318446636E0
1.269586327E1,-1.090528965E1,4.917250574E-1,4.780859470E0
1.270586327E1,-1.093161011E1,6.975077987E-1,5.051846981E0
1.271586327E1,-1.076650524E1,8.177471161E-1,5.309673309E0
1.272586327E1,-1.054337502E1,7.746763229E-1,5.560321808E0
1.273586327E1,-1.021555805E1,6.939185858E-1,5.845067501E0
1.274586327E1,-1.002951622E1,6.370890141E-1,5.989833355E0
1.275586327E1,-1.060558796E1,7.603194118E-1,5.554937840E0
1.276586327E1,-1.123490047E1,4.187439680E-1,5.429314613E0
1.277586327E1,-1.178883934E1,4.414757788E-1,4.708476543E0
1.278586327E1,-1.278485107E1,6.646065116E-1,2.864806890E0
1.279586327E1,-1.362532997E1,7.627122402E-1,8.225327730E-1
1.280586327E1,-1.374257851E1,1.194018483E0,-1.986042857E-1
1.281586327E1,-1.283091354E1,1.353739381E0,-6.334998012E-1
1.282586327E1,-1.125105190E1,1.218544960E0,-8.362914920E-1
1.283586327E1,-9.936196327E0,8.578268886E-1,-7.244270444E-1
1.284586327E1,-9.177671432E0,5.048855543E-1,-3.966103494E-1
1.285586327E1,-8.448458672E0,2.003988922E-1,5.503492057E-2
1.286586327E1,-7.713263988E0,-3.678964674E-1,1.000798106E0
1.287586327E1,-7.216155052E0,-7.788637877E-1,1.776670814E0
1.288586327E1,-6.930212498E0,-1.127617717E0,2.598007202E0
1.289586327E1,-7.250850677E0,-1.578664780E0,3.421138287E0
1.290586327E1,-7.685148239E0,-1.881356835E0,4.031906128E0
1.291586327E1,-7.936992645E0,-1.791027784E0,4.406980991E0
1.292586327E1,-8.438288689E0,-1.169492126E0,4.709673405E0
1.293586327E1,-8.801998138E0,-9.272187948E-2,4.498506546E0
1.294586327E1,-9.116654396E0,1.055832982E0,3.991228104E0
1.295586327E1,-9.352945328E0,1.778465390E0,3.473181963E0
1.296586327E1,-9.841081619E0,2.428714991E0,2.696112871E0
1.297586327E1,-1.012702370E1,2.749353170E0,1.860419631E0
1.298586327E1,-1.006600666E1,2.634497643E0,1.398006678E0
1.299586327E1,-9.756733894E0,2.007578135E0,1.156331539E0
1.300586327E1,-9.388837814E0,1.409970760E0,1.349551916E0
1.301586327E1,-8.878568649E0,7.549355626E-1,1.763510346E0
1.302586327E1,-8.440083504E0,2.865405083E-1,2.038086653E0
1.303586327E1,-7.728816986E0,-1.286142170E-1,2.375474691E0
1.304586327E1,-7.229913712E0,-7.932206988E-1,2.937788010E0
1.305586327E1,-6.821339130E0,-7.537391186E-1,3.279363394E0
1.306586327E1,-6.740581512E0,-8.590233326E-1,3.424129248E0
1.307586327E1,-6.970292568E0,-1.170688510E0,3.544368505E0
1.308586327E1,-7.267002583E0,-1.511665702E0,3.654438496E0
1.309586327E1,-7.491329670E0,-1.607976794E0,3.610769272E0
1.310586327E1,-7.734799385E0,-1.498505235E0,3.498306751E0
1.311586327E1,-8.318049431E0,-1.313061476E0,3.421736479E0
1.312586327E1,-8.660821915E0,-1.179661512E0,3.208176851E0
1.313586327E1,-8.785248756E0,-1.012163997E0,3.157927752E0
1.314586327E1,-8.790034294E0,-8.494520187E-1,3.080160856E0
1.315586327E1,-8.518448830E0,-6.191428304E-1,3.218944550E0
1.316586327E1,-8.194819450E0,-3.882354796E-1,3.343969584E0
1.317586327E1,-7.976474285E0,-1.722832322E-1,3.501895905E0
1.318586327E1,-7.795217991E0,-7.597211748E-2,3.483351469E0
1.319586327E1,-7.746165276E0,2.207378894E-1,3.285345554E0
1.320586327E1,-7.862216949E0,4.600201547E-1,3.335594654E0
1.321586327E1,-8.011170387E0,5.557330847E-1,3.405584812E0
1.322586327E1,-8.574680328E0,6.837490797E-1,3.281157970E0
1.323586327E1,-9.212367058E0,8.925228715E-1,2.797209740E0
1.324586327E1,-9.964909554E0,1.125823021E0,2.336591244E0
1.325586327E1,-1.088375378E1,1.104287624E0,2.440080881E0
1.326586327E1,-1.132941723E1,1.031306505E0,3.206980467E0
1.327586327E1,-1.146102238E1,1.002592683E0,4.185645103E0
1.328586327E1,-1.144247818E1,1.174875975E0,4.863411903E0
1.329586327E1,-1.120558834E1,1.606780410E0,5.640480995E0
1.330586327E1,-1.091785145E1,1.626521230E0,6.129813194E0
1.331586327E1,-1.038843918E1,2.006381750E0,6.254838467E0
1.332586327E1,-9.920642853E0,2.232503414E0,6.290132523E0
1.333586327E1,-9.942776680E0,2.237289190E0,6.079564095E0
1.334586327E1,-1.097587776E1,2.206182480E0,6.029314995E0
1.335586327E1,-1.191805172E1,2.888735056E0,5.851049423E0
1.336586327E1,-1.275673580E1,2.211566210E0,4.406980991E0
1.337586327E1,-1.412423420E1,1.680957973E-1,2.481955290E0
1.338586327E1,-1.483191109E1,-7.962117195E-1,1.950150430E-1
1.339586327E1,-1.444307709E1,-1.183250785E0,-1.147358418E0
1.340586327E1,-1.319821167E1,-2.028515339E0,-1.724626899E0
1.341586327E1,-1.185583782E1,-2.484946251E0,-1.984846354E0
1.342586327E1,-1.061515903E1,-2.252244234E0,-1.724626899E0
1.343586327E1,-9.605986595E0,-2.091925144E0,-1.149751306E0
1.344586327E1,-8.312067986E0,-2.160718918E0,-2.662015259E-1
1.345586327E1,-7.094718933E0,-1.588235974E0,4.887340367E-1
1.346586327E1,-6.333203316E0,-8.727820516E-1,8.135597110E-1
1.347586327E1,-5.816353798E0,-1.435693540E-2,1.135992527E0
1.348586327E1,-5.785845280E0,7.477570772E-1,1.957328916E0
1.349586327E1,-6.099903107E0,1.527219057E0,2.785843849E0
1.350586327E1,-6.459424496E0,1.761117458E0,3.421736479E0
1.351586327E1,-7.165905476E0,1.673181176E0,3.933800459E0
1.352586327E1,-8.073982239E0,1.436890006E0,3.933800459E0
1.353586327E1,-9.014361382E0,1.348355532E0,3.703491211E0
1.354586327E1,-9.688538551E0,1.293918848E0,3.039483070E0
1.355586327E1,-1.024247742E1,7.944171429E-1,2.499303341E0
1.356586327E1,-1.047039413E1,3.535395563E-1,1.731805444E0
1.357586327E1,-1.047099209E1,1.381855011E-1,1.241276741E0
1.358586327E1,-1.035494041E1,-1.250249892E-1,1.158126116E0
1.359586327E1,-1.003489971E1,-2.775674164E-1,1.228116274E0
1.360586327E1,-9.673583984E0,-2.769692242E-1,1.512263894E0
1.361586327E1,-9.449854851E0,-3.002992272E-1,1.671984792E0
1.362586327E1,-9.189037323E0,1.794616925E-3,1.915454507E0
1.363586327E1,-8.737391472E0,5.060819983E-1,2.081755638E0
1.364586327E1,-8.444869041E0,1.052842021E0,2.462214470E0
1.365586327E1,-8.279764175E0,1.417149186E0,2.637488842E0
1.366586327E1,-8.062616348E0,1.666600943E0,2.928814888E0
1.367586327E1,-7.801199913E0,1.796411633E0,3.111267567E0
1.368586327E1,-7.750950813E0,1.829911113E0,3.426522017E0
1.369586327E1,-7.780262947E0,1.853839397E0,3.493520975E0
1.370586327E1,-7.918448448E0,1.844268084E0,3.430111170E0
1.371586327E1,-7.966304779E0,1.795813441E0,3.430111170E0
1.372586327E1,-8.042875290E0,1.719243050E0,3.487539053E0
1.373586327E1,-8.033304214E0,1.647458434E0,3.483351469E0
1.374586327E1,-7.975875854E0,1.594816327E0,3.508476257E0
1.375586327E1,-7.871788502E0,1.609173179E0,3.628117323E0
1.376586327E1,-7.829315662E0,1.624128342E0,3.733401537E0
1.377586327E1,-7.830512047E0,1.600200176E0,3.886542082E0
1.378586327E1,-7.883752346E0,1.628913999E0,3.957728624E0
1.379586327E1,-8.151150703E0,1.575673699E0,3.965505362E0
1.380586327E1,-8.402995110E0,1.464407444E0,3.768695593E0
1.381586327E1,-8.755337715E0,1.463809252E0,3.522833109E0
1.382586327E1,-9.236893654E0,1.543968797E0,3.337389469E0
1.383586327E1,-9.743574142E0,1.763510346E0,3.288934708E0
1.384586327E1,-1.014138031E1,1.853241086E0,3.367299557E0
1.385586327E1,-1.068933678E1,1.823330879E0,3.688536167E0
1.386586327E1,-1.114636612E1,1.731207132E0,4.082155228E0
1.387586327E1,-1.129711437E1,1.654038668E0,4.435695171E0
1.388586327E1,-1.129591751E1,1.366899967E0,4.977669239E0
1.389586327E1,-1.116909790E1,9.553344250E-1,5.435296535E0
1.390586327E1,-1.084965611E1,3.954139352E-1,5.680561066E0
1.391586327E1,-1.056730270E1,-2.033899166E-2,5.781059742E0
1.392586327E1,-1.069830990E1,-3.511467278E-1,5.490929604E0
1.393586327E1,-1.121157074E1,-9.559326172E-1,5.228915691E0
1.394586327E1,-1.160698414E1,-1.483550072E0,4.551746845E0
1.395586327E1,-1.199940777E1,-1.321436286E0,3.285943747E0
1.396586327E1,-1.270828152E1,-8.775677085E-1,1.414756417E0
1.397586327E1,-1.291466236E1,-1.310070455E-1,6.999006122E-2
1.398586327E1,-1.231825066E1,1.429711580E-1,-4.725824594E-1
1.399586327E1,-1.084666538E1,1.609173268E-1,-9.212366939E-1
1.400586327E1,-9.659226418E0,2.309073806E-1,-1.147956610E0
1.401586327E1,-8.982656479E0,2.416750938E-1,-8.039883971E-1
1.402586327E1,-8.569295883E0,3.672982752E-1,-4.576273263E-1
1.403586327E1,-8.069794655E0,2.632105052E-1,5.545366406E-1
1.404586327E1,-7.614559650E0,5.802594870E-2,1.715653777E0
1.405586327E1,-7.506284714E0,-2.626122832E-1,2.678765059E0
1.406586327E1,-7.674380302E0,-5.503492355E-1,3.454039574E0
1.407586327E1,-7.828717709E0,-5.216353536E-1,4.255635262E0
1.408586327E1,-8.245068550E0,-2.015953064E-1,4.862215519E0
1.409586327E1,-8.576474190E0,3.816552162E-1,4.865206718E0
1.410586327E1,-8.908478737E0,1.276570916E0,4.272983074E0
1.411586327E1,-9.195617676E0,1.927418590E0,3.444468260E0
1.412586327E1,-9.444471359E0,2.439482689E0,2.755933523E0
1.413586327E1,-9.542576790E0,2.639881611E0,2.367099762E0
1.414586327E1,-9.303893089E0,2.520838737E0,1.853241086E0
1.415586327E1,-9.014959335E0,2.263011932E0,1.608574986E0
1.416586327E1,-8.923434258E0,2.018944025E0,1.572682738E0
1.417586327E1,-9.023334503E0,1.573280931E0,1.689931035E0
1.418586327E1,-8.942576408E0,6.729813814E-1,1.974078655E0
1.419586327E1,-8.760722160E0,-2.793620527E-1,2.268994093E0
1.420586327E1,-8.288139343E0,-1.150349498E0,2.627319336E0
1.421586327E1,-7.831708431E0,-1.441077471E0,3.029313564E0
1.422586327E1,-7.490133286E0,-1.818545222E0,3.478565931E0
1.423586327E1,-7.350750923E0,-2.182254314E0,3.539582968E0
1.424586327E1,-7.317251682E0,-2.273181438E0,3.531208038E0
1.425586327E1,-7.464410305E0,-2.585444927E0,3.470191002E0
1.426586327E1,-7.616952896E0,-2.370090723E0,3.362514019E0
1.427586327E1,-7.803592682E0,-1.867598057E0,3.262015581E0
1.428586327E1,-7.984848976E0,-1.532602906E0,3.095714331E0
1.429586327E1,-8.281558990E0,-1.030708313E0,2.932404041E0
1.430586327E1,-8.391629219E0,-4.510470629E-1,2.803191662E0
1.431586327E1,-8.316255569E0,-8.673982322E-2,2.825325251E0
1.432586327E1,-8.082955360E0,0.000000000E0,2.950350285E0
1.433586327E1,-7.710870743E0,-4.187439568E-3,3.067598581E0
1.434586327E1,-7.367500782E0,2.991028316E-2,3.232105255E0
1.435586327E1,-7.249654293E0,1.166501045E-1,3.428316593E0
1.436586327E1,-7.223931789E0,1.740778536E-1,3.791427374E0
1.437586327E1,-7.445865631E0,2.261217386E-1,4.047459602E0
1.438586327E1,-7.833503246E0,2.207378894E-1,4.016352654E0
1.439586327E1,-8.300103188E0,1.764706671E-1,3.817150354E0
1.440586327E1,-8.987442017E0,2.321037948E-1,3.592225075E0
1.441586327E1,-9.707083702E0,4.510470629E-1,3.251247883E0
1.442586327E1,-1.042253685E1,8.374879360E-1,2.827718258E0
1.443586327E1,-1.094178009E1,1.013360381E0,2.522035122E0
1.444586327E1,-1.149212933E1,9.260223508E-1,2.585444927E0
1.445586327E1,-1.187438202E1,7.860422134E-1,3.243471146E0
1.446586327E1,-1.192523003E1,9.487541914E-1,4.245465755E0
1.447586327E1,-1.180618668E1,1.202991605E0,4.865206718E0
1.448586327E1,-1.159621716E1,1.586441398E0,5.394618511E0
1.449586327E1,-1.151127148E1,1.615155339E0,5.547759533E0
1.450586327E1,-1.201735306E1,1.710269928E0,4.812564373E0
1.451586327E1,-1.328435326E1,2.995215654E0,5.047659397E0
1.452586327E1,-1.404945850E1,3.271586657E0,4.290330887E0
1.453586327E1,-1.504487228E1,4.480560422E-1,2.697907448E0
1.454586327E1,-1.550130367E1,-1.013360381E0,9.038887620E-1
1.455586327E1,-1.495394516E1,-1.644467354E0,-1.128215909E0
1.456586327E1,-1.312343597E1,-2.392224550E0,-1.415952802E0
1.457586327E1,-1.131505966E1,-3.183052301E0,-1.249053478E0
1.458586327E1,-1.026221848E1,-3.233301640E0,-1.313061476E0
1.459586327E1,-9.114859581E0,-2.890529871E0,-1.412961721E0
1.460586327E1,-7.961519241E0,-2.327618122E0,-1.050449133E0
1.461586327E1,-7.367500782E0,-1.928615093E0,-6.239284873E-1
1.462586327E1,-7.216753006E0,-1.214955688E0,7.896314561E-2
1.463586327E1,-7.276573658E0,-3.337987661E-1,8.081758618E-1
1.464586327E1,-7.438089371E0,5.090730190E-1,1.680359721E0
1.465586327E1,-7.682755470E0,9.200403094E-1,2.268395901E0
1.466586327E1,-7.973483086E0,1.149153113E0,2.660818815E0
1.467586327E1,-8.578866959E0,1.104885817E0,3.082553864E0
1.468586327E1,-9.047860146E0,1.108475089E0,3.102892876E0
1.469586327E1,-9.465408325E0,7.914260626E-1,2.748754978E0
1.470586327E1,-9.716055870E0,8.434699774E-1,1.738385677E0
1.471586327E1,-9.845867157E0,6.035895348E-1,1.285543919E0
1.472586327E1,-9.824331284E0,5.700899959E-1,9.750752449E-1
1.473586327E1,-9.704092026E0,6.329016089E-1,8.847461939E-1
1.474586327E1,-9.489934921E0,5.234299302E-1,1.020538807E0
1.475586327E1,-9.280562401E0,4.965107143E-2,1.345962763E0
1.476586327E1,-9.224330902E0,-2.997010350E-1,1.601994753E0
1.477586327E1,-9.173483849E0,-5.491527915E-1,1.910070658E0
1.478586327E1,-9.128618240E0,-2.901297510E-1,2.161317110E0
1.479586327E1,-9.116056442E0,2.273181528E-1,2.253440619E0
1.480586327E1,-9.171091080E0,8.829515576E-1,2.401197433E0
1.481586327E1,-9.053244591E0,1.616351724E0,2.435295343E0
1.482586327E1,-8.728418350E0,2.014756680E0,2.362912416E0
1.483586327E1,-8.409575462E0,2.355135679E0,2.491526604E0
1.484586327E1,-8.243273735E0,2.504088879E0,2.587239504E0
1.485586327E1,-8.044071198E0,2.557329178E0,2.779263496E0
1.486586327E1,-7.834699631E0,2.456830740E0,2.967698336E0
1.487586327E1,-7.749754429E0,2.371287346E0,3.117249727E0
1.488586327E1,-7.712067604E0,2.208575249E0,3.214159012E0
1.489586327E1,-7.770093441E0,2.088335991E0,3.324826956E0
1.490586327E1,-7.871190071E0,1.949552298E0,3.473181963E0
1.491586327E1,-7.976474285E0,1.781456470E0,3.507279873E0
1.492586327E1,-8.076972961E0,1.618744493E0,3.598206997E0
1.493586327E1,-8.102097511E0,1.503290772E0,3.756731510E0
1.494586327E1,-8.192426682E0,1.465005636E0,3.746562004E0
1.495586327E1,-8.297112465E0,1.435693622E0,3.683750391E0
1.496586327E1,-8.501698494E0,1.383051515E0,3.587439299E0
1.497586327E1,-8.730213165E0,1.258026481E0,3.448057413E0
1.498586327E1,-8.978468895E0,1.185643673E0,3.413361549E0
1.499586327E1,-9.313464165E0,1.179661512E0,3.430111170E0
1.500586327E1,-9.662816048E0,1.107278705E0,3.480958700E0
1.501586327E1,-1.008455086E1,9.912267923E-1,3.636492252E0
1.502586327E1,-1.048295593E1,7.698906660E-1,3.884149313E0
1.503586327E1,-1.101057339E1,2.177468538E-1,4.223331928E0
1.504586327E1,-1.131386375E1,-3.720839322E-1,4.684548378E0
1.505586327E1,-1.125464153E1,-7.740781307E-1,5.175076962E0
1.506586327E1,-1.110329533E1,-9.320043921E-1,5.435296535E0
1.507586327E1,-1.099860954E1,-8.979067206E-1,5.502295494E0
1.508586327E1,-1.150648594E1,-8.273184299E-1,5.015954494E0
1.509586327E1,-1.201017475E1,-1.125224829E0,4.675575256E0
1.510586327E1,-1.238405323E1,-1.298704505E0,4.177269936E0
1.511586327E1,-1.248275757E1,-7.818548083E-1,3.183650494E0
1.512586327E1,-1.284885979E1,-1.103091240E0,1.773679733E0
1.513586327E1,-1.259282780E1,-7.579265833E-1,6.502495408E-1
1.514586327E1,-1.172662544E1,1.399801224E-1,-2.536391914E-1
1.515586327E1,-1.047099209E1,6.119644046E-1,-7.166503668E-1
1.516586327E1,-9.303294182E0,4.953143001E-1,-7.938188910E-1
1.517586327E1,-8.404191017E0,1.477568001E-1,-7.513462901E-1
1.518586327E1,-7.581060410E0,-1.375873014E-2,-7.304090858E-1
1.519586327E1,-7.156932354E0,-2.422732860E-1,1.154536903E-1
1.520586327E1,-6.997211456E0,-4.815555513E-1,1.222134113E0
1.521586327E1,-7.041478634E0,-6.400800347E-1,1.987239242E0
1.522586327E1,-6.936194420E0,-9.942178130E-1,2.717050076E0
1.523586327E1,-7.034898758E0,-1.094716311E0,3.787240028E0
1.524586327E1,-7.365108013E0,-9.230313301E-1,4.390829563E0
1.525586327E1,-8.075776100E0,-3.882354796E-1,4.645066738E0
1.526586327E1,-8.882756233E0,3.762713671E-1,4.289732933E0
1.527586327E1,-9.571888924E0,1.150349498E0,3.476771355E0
1.528586327E1,-9.945767403E0,1.695314884E0,2.819941521E0
1.529586327E1,-1.032921696E1,2.202593327E0,2.149951220E0
1.530586327E1,-1.027717304E1,2.518445730E0,1.488335729E0
1.531586327E1,-1.021735287E1,2.643470764E0,1.129412293E0
1.532586327E1,-9.985847473E0,2.519043922E0,9.696913958E-1
1.533586327E1,-9.632308006E0,2.074577332E0,1.070788145E0
1.534586327E1,-9.212965012E0,1.151545882E0,1.529611826E0
1.535586327E1,-8.799007416E0,4.145565331E-1,2.053640127E0
1.536586327E1,-8.279764175E0,-3.936193287E-1,2.536391973E0
1.537586327E1,-7.817351341E0,-1.096511006E0,2.903092146E0
1.538586327E1,-7.578069210E0,-1.383649707E0,3.599403381E0
1.539586327E1,-7.348956585E0,-1.780260086E0,3.747160196E0
1.540586327E1,-7.081558704E0,-2.163111687E0,3.918845177E0
1.541586327E1,-6.887740135E0,-2.358724833E0,3.678366661E0
1.542586327E1,-7.092924595E0,-2.402393818E0,3.610171080E0
1.543586327E1,-7.446464062E0,-2.178066730E0,3.481556892E0
1.544586327E1,-7.942376614E0,-1.863410592E0,3.203989506E0
1.545586327E1,-8.342576027E0,-1.336989641E0,2.900699139E0
1.546586327E1,-8.672187805E0,-8.494520187E-1,2.679961443E0
1.547586327E1,-8.763114929E0,-5.479564071E-1,2.600998163E0
1.548586327E1,-8.691927910E0,-2.745763958E-1,2.627917528E0
1.549586327E1,-8.436494827E0,-8.733802289E-2,2.900699139E0
1.550586327E1,-8.228319168E0,3.768695518E-2,3.183052301E0
1.551586327E1,-8.048856735E0,1.387837082E-1,3.466003656E0
1.552586327E1,-8.012366295E0,2.201396823E-1,3.704089403E0
1.553586327E1,-8.133802414E0,3.104687333E-1,3.912863255E0
1.554586327E1,-8.359326363E0,4.492524564E-1,3.972683907E0
1.555586327E1,-8.889336586E0,5.868397355E-1,3.772284985E0
1.556586327E1,-9.652647018E0,7.716853023E-1,3.531208038E0
1.557586327E1,-1.052961636E1,7.028916478E-1,3.172284603E0
1.558586327E1,-1.127737331E1,6.101697683E-1,2.780459881E0
1.559586327E1,-1.201196957E1,2.057827413E-1,2.592025042E0
1.560586327E1,-1.230150127E1,-4.414757788E-1,3.120240688E0
1.561586327E1,-1.221954727E1,-7.429714203E-1,3.796811342E0
1.562586327E1,-1.185165024E1,-7.465606928E-1,4.467998028E0
1.563586327E1,-1.150648594E1,-6.454638839E-1,4.952544689E0
1.564586327E1,-1.198564816E1,-6.466603279E-1,5.059025288E0
1.565586327E1,-1.258325577E1,9.230313301E-1,5.215754986E0
1.566586327E1,-1.302473164E1,1.654636860E0,4.572085857E0
1.567586327E1,-1.339262867E1,7.250252366E-1,2.961117983E0
1.568586327E1,-1.412782288E1,2.440679073E-1,1.033699393E0
1.569586327E1,-1.407518101E1,1.818545163E-1,-2.464607358E-1
1.570586327E1,-1.310130215E1,-1.746760458E-1,-1.154536963E0
1.571586327E1,-1.181216908E1,-7.944171429E-1,-1.336989641E0
1.572586327E1,-1.089392376E1,-7.974081635E-1,-1.335195065E0
1.573586327E1,-9.866804123E0,-6.323033571E-1,-1.257428288E0
1.574586327E1,-8.866603851E0,-4.331009090E-1,-7.740781307E-1
1.575586327E1,-8.002197266E0,6.699903309E-2,-1.220339537E-1
1.576586327E1,-7.468597889E0,3.649054468E-1,7.118647546E-2
1.577586327E1,-6.983452797E0,5.718846321E-1,3.212364316E-1
1.578586327E1,-6.639484406E0,7.932206988E-1,9.577272534E-1
1.579586327E1,-6.613163471E0,8.171489239E-1,1.917847395E0
1.580586327E1,-6.862017155E0,6.107679605E-1,2.577069998E0
1.581586327E1,-7.439883709E0,3.218346536E-1,3.172284603E0
1.582586327E1,-8.267202377E0,2.811566554E-2,3.269193888E0
1.583586327E1,-9.250054359E0,-3.170489892E-2,3.004786968E0
1.584586327E1,-9.787242889E0,-2.488535494E-1,2.600998163E0
1.585586327E1,-1.030887794E1,-7.716853172E-2,2.023131609E0
1.586586327E1,-1.041476059E1,2.386840582E-1,1.398604870E0
1.587586327E1,-1.036092186E1,3.343969584E-1,1.183250785E0
1.588586327E1,-1.023589706E1,5.024927258E-1,1.063609719E0
1.589586327E1,-9.845269203E0,5.892325640E-1,1.185045362E0
1.590586327E1,-9.378668785E0,7.004988194E-1,1.455434322E0
1.591586327E1,-9.022137642E0,9.026923180E-1,1.700100541E0
1.592586327E1,-8.566903114E0,1.171884894E0,2.093121529E0
1.593586327E1,-8.102097511E0,1.474576950E0,2.547757864E0
1.594586327E1,-7.938787460E0,1.948953986E0,2.937788010E0
1.595586327E1,-7.758727551E0,2.169692039E0,3.095116138E0
1.596586327E1,-7.539783955E0,2.184647083E0,3.244667530E0
1.597586327E1,-7.405786037E0,1.998006940E0,3.260818958E0
1.598586327E1,-7.376473904E0,1.811366796E0,3.248256683E0
1.599586327E1,-7.384849072E0,1.586441398E0,3.144767046E0
1.600586327E1,-7.536793232E0,1.375274777E0,3.097508907E0
1.601586327E1,-7.756334782E0,1.274178028E0,3.048455954E0
1.602586327E1,-7.880761147E0,1.135394335E0,3.058625460E0
1.603586327E1,-8.115258217E0,1.115653515E0,3.123830080E0
1.604586327E1,-8.225926399E0,1.105484009E0,3.242872953E0
1.605586327E1,-8.279166222E0,1.134197950E0,3.265604734E0
1.606586327E1,-8.298907280E0,1.201196909E0,3.327219963E0
1.607586327E1,-8.414958954E0,1.282552958E0,3.464209080E0
1.608586327E1,-8.583054543E0,1.320239902E0,3.539582968E0
1.609586327E1,-8.836693764E0,1.333998680E0,3.561716557E0
1.610586327E1,-9.111868858E0,1.151545882E0,3.336193085E0
1.611586327E1,-9.434899330E0,9.302098155E-1,3.144767046E0
1.612586327E1,-9.716654778E0,8.482556343E-1,3.123830080E0
1.613586327E1,-9.927821159E0,8.237292171E-1,3.203989506E0
1.614586327E1,-1.023051357E1,8.709874153E-1,3.383451223E0
1.615586327E1,-1.055354404E1,8.177471161E-1,3.754338741E0
1.616586327E1,-1.084367371E1,7.112665176E-1,4.201796532E0
1.617586327E1,-1.105244732E1,7.447660565E-1,4.558925152E0
1.618586327E1,-1.119900799E1,7.872386575E-1,4.958526611E0
1.619586327E1,-1.115832996E1,7.585247755E-1,5.279164791E0
1.620586327E1,-1.150708389E1,6.526423693E-1,5.306682587E0
1.621586327E1,-1.235115242E1,3.870390654E-1,5.011168957E0
1.622586327E1,-1.289551926E1,-8.739784956E-1,4.671986103E0
1.623586327E1,-1.310907841E1,-1.008574724E0,3.850051641E0
1.624586327E1,-1.336929798E1,-1.023529887E0,2.261815548E0
1.625586327E1,-1.332323647E1,7.357929647E-2,2.901297510E-1
1.626586327E1,-1.310249901E1,4.671986103E-1,-5.569294691E-1
1.627586327E1,-1.169192982E1,6.281159520E-1,-1.245464206E0
1.628586327E1,-1.052841949E1,5.545366406E-1,-1.366301775E0
1.629586327E1,-9.423533440E0,9.212367237E-2,-1.269392371E0
1.630586327E1,-8.554341316E0,-4.965107143E-2,-1.070788145E0
1.631586327E1,-7.974679470E0,-2.392822690E-2,2.691925503E-2
1.632586327E1,-7.685148239E0,-9.990034252E-2,9.421738982E-1
1.633586327E1,-7.581658363E0,-2.961117923E-1,1.876571178E0
1.634586327E1,-7.686942577E0,-5.838487148E-1,2.599203587E0
1.635586327E1,-7.733603001E0,-7.130611539E-1,3.139383316E0
1.636586327E1,-7.766504288E0,-7.615157962E-1,3.713062525E0
1.637586327E1,-7.875377655E0,-3.786641955E-1,4.024727821E0
1.638586327E1,-8.047660828E0,3.397808075E-1,3.894318819E0
1.639586327E1,-8.165507317E0,9.236295223E-1,3.468994617E0
1.640586327E1,-8.598608017E0,1.459023595E0,3.031706333E0
1.641586327E1,-9.108877182E0,1.826920033E0,2.734398127E0
1.642586327E1,-9.389435768E0,2.142174482E0,2.438884497E0
1.643586327E1,-9.598209381E0,2.434098721E0,2.143370867E0
1.644586327E1,-9.608379364E0,2.395813704E0,1.608574986E0
1.645586327E1,-9.702297211E0,2.041077614E0,1.486541033E0
1.646586327E1,-9.515657425E0,1.409372568E0,1.659422517E0
1.647586327E1,-9.134002686E0,6.915257573E-1,2.015953064E0
1.648586327E1,-8.289336205E0,-9.212367237E-2,2.476571321E0
1.649586327E1,-7.981858253E0,-6.131607890E-1,3.056232691E0
1.650586327E1,-7.685746193E0,-1.134796143E0,3.253042459E0
1.651586327E1,-7.344769001E0,-1.924427629E0,3.303889751E0
1.652586327E1,-7.310073376E0,-2.292922258E0,3.244667530E0
1.653586327E1,-7.252645493E0,-2.206780672E0,3.211168051E0
1.654586327E1,-7.228118896E0,-2.182254314E0,3.077169895E0
1.655586327E1,-7.405188084E0,-2.130210400E0,3.118446112E0
1.656586327E1,-7.826922894E0,-1.594816327E0,3.035295486E0
1.657586327E1,-8.031509399E0,-1.149751306E0,2.830111027E0
1.658586327E1,-8.281558990E0,-6.807580590E-1,2.886940479E0
1.659586327E1,-8.417351723E0,-2.739782035E-1,2.973680258E0
1.660586327E1,-8.188837051E0,4.187439568E-3,3.021536827E0
1.661586327E1,-7.945367813E0,1.148554832E-1,3.079562664E0
1.662586327E1,-7.735397339E0,2.925225794E-1,3.108874798E0
1.663586327E1,-7.712665558E0,4.504488707E-1,3.203391314E0
1.664586327E1,-7.929215908E0,4.163511395E-1,3.369094372E0
1.665586327E1,-8.255238533E0,4.348955154E-1,3.457628727E0
1.666586327E1,-8.710473061E0,4.001995921E-1,3.602992773E0
1.667586327E1,-9.433703423E0,4.319044948E-1,3.769293785E0
1.668586327E1,-1.021436119E1,4.881358147E-1,3.849453449E0
1.669586327E1,-1.076351452E1,5.347958803E-1,3.783052683E0
1.670586327E1,-1.129352474E1,4.037888348E-1,3.718446493E0
1.671586327E1,-1.155613708E1,9.690931439E-2,3.752544165E0
1.672586327E1,-1.161476135E1,-8.494520187E-2,3.934996843E0
1.673586327E1,-1.145384407E1,-2.237289101E-1,4.213760853E0
1.674586327E1,-1.109791183E1,-2.422732860E-1,4.522434711E0
1.675586327E1,-1.080359459E1,-2.560320199E-1,4.878366947E0
1.676586327E1,-1.094836044E1,-4.576273263E-1,5.036293507E0
1.677586327E1,-1.186720371E1,3.451646566E-1,4.904688358E0
1.678586327E1,-1.298285770E1,1.716850281E0,4.724628448E0
1.679586327E1,-1.384965706E1,1.284347534E0,3.742374659E0
1.680586327E1,-1.467219067E1,9.613165259E-1,1.928016901E0
1.681586327E1,-1.493240929E1,5.587241054E-1,-1.878365725E-1
1.682586327E1,-1.406022549E1,1.196411327E-1,-8.907282352E-1
1.683586327E1,-1.258026505E1,-6.287141442E-1,-1.013360381E0
1.684586327E1,-1.142632675E1,-1.171884894E0,-1.068395257E0
1.685586327E1,-1.018026352E1,-1.192822099E0,-7.920243144E-1
1.686586327E1,-8.948558807E0,-1.166501045E0,-4.492524564E-1
1.687586327E1,-7.914260864E0,-1.063609719E0,-9.391828626E-2
1.688586327E1,-6.805187702E0,-6.538388133E-1,4.887340367E-1
1.689586327E1,-6.016154289E0,-2.931207791E-2,9.631111026E-1
1.690586327E1,-5.600999832E0,4.552344978E-1,1.607378602E0
1.691586327E1,-5.497509956E0,1.035493970E0,2.244467735E0
1.692586327E1,-5.752943993E0,1.575673699E0,3.017349243E0
1.693586327E1,-6.411568165E0,1.732403636E0,3.418147087E0
1.694586327E1,-7.356134892E0,1.753939033E0,3.702893019E0
1.695586327E1,-8.216953278E0,1.876571178E0,3.695714474E0
1.696586327E1,-9.174679756E0,1.668395638E0,3.275176048E0
1.697586327E1,-1.017368412E1,1.383649707E0,2.648854733E0
1.698586327E1,-1.074736309E1,9.942178130E-1,2.146361828E0
1.699586327E1,-1.104407310E1,8.069794178E-1,1.600798368E0
1.700586327E1,-1.094058323E1,4.863412082E-1,1.269392371E0
1.701586327E1,-1.068574810E1,7.776673418E-3,1.236491084E0
1.702586327E1,-1.030827999E1,-1.686939895E-1,1.307079315E0
1.703586327E1,-9.692726135E0,-2.338984162E-1,1.540977836E0
1.704586327E1,-9.044869423E0,-4.193421602E-1,1.933998942E0
1.705586327E1,-8.350951195E0,-1.734796464E-1,2.376671076E0
1.706586327E1,-7.996214867E0,2.775674164E-1,2.791227579E0
1.707586327E1,-7.683951855E0,8.243274093E-1,3.090928555E0
1.708586327E1,-7.509873867E0,1.365703583E0,3.298506021E0
1.709586327E1,-7.377670288E0,1.663011789E0,3.473780155E0
1.710586327E1,-7.363911629E0,1.806581140E0,3.482753277E0
1.711586327E1,-7.392027378E0,1.859223247E0,3.424727440E0
1.712586327E1,-7.516454220E0,1.878365755E0,3.366103172E0
1.713586327E1,-7.649854183E0,1.877767563E0,3.298506021E0
1.714586327E1,-7.850253105E0,1.887338877E0,3.239881754E0
1.715586327E1,-8.036294937E0,1.810170293E0,3.205784082E0
1.716586327E1,-8.146365166E0,1.795215130E0,3.204587698E0
1.717586327E1,-8.242077827E0,1.742573142E0,3.242872953E0
1.718586327E1,-8.347361565E0,1.593619823E0,3.314657450E0
1.719586327E1,-8.458029747E0,1.435095429E0,3.463610888E0
1.720586327E1,-8.620741844E0,1.296311617E0,3.501297712E0
1.721586327E1,-8.830712318E0,1.195214868E0,3.486342669E0
1.722586327E1,-9.091529846E0,1.017547846E0,3.256631613E0
1.723586327E1,-9.404989243E0,8.727820516E-1,2.973082066E0
1.724586327E1,-9.701101303E0,8.338986635E-1,2.947957516E0
1.725586327E1,-1.007916737E1,6.317051649E-1,2.994019270E0
1.726586327E1,-1.040518951E1,3.966103494E-1,3.175275564E0
1.727586327E1,-1.080957603E1,1.992024779E-1,3.585046530E0
1.728586327E1,-1.110867882E1,1.316052526E-1,3.951148272E0
1.729586327E1,-1.139462185E1,1.447657645E-1,4.493721008E0
1.730586327E1,-1.154237843E1,3.649054468E-1,4.954937458E0
1.731586327E1,-1.152503014E1,5.180460811E-1,5.139782906E0
1.732586327E1,-1.191087246E1,6.035895348E-1,4.898108006E0
1.733586327E1,-1.268196011E1,2.859423161E-1,4.569693089E0
1.734586327E1,-1.278245831E1,-4.091726840E-1,4.096512318E0
1.735586327E1,-1.287039471E1,-2.847459018E-1,3.096312523E0
1.736586327E1,-1.312223911E1,-2.805584669E-1,9.487541914E-1
1.737586327E1,-1.303849030E1,2.416750938E-1,-7.124629617E-1
1.738586327E1,-1.221356487E1,3.828516304E-1,-1.128215909E0
1.739586327E1,-1.116012478E1,1.692921966E-1,-1.219741344E0
1.740586327E1,-1.012283611E1,-1.537388563E-1,-1.037886858E0
1.741586327E1,-9.132805824E0,-1.417747438E-1,-1.040877819E0
1.742586327E1,-8.482556343E0,-1.076770201E-2,-4.875376225E-1
1.743586327E1,-8.086544037E0,-1.298106313E-1,3.188436031E-1
1.744586327E1,-8.045866013E0,-2.398804724E-1,1.265803218E0
1.745586327E1,-8.132007599E0,-6.999006271E-1,2.052443504E0
1.746586327E1,-8.361719131E0,-1.054636598E0,2.788834810E0
1.747586327E1,-8.489136696E0,-9.738788009E-1,3.198605776E0
1.748586327E1,-8.559126854E0,-6.101697683E-1,3.486940861E0
1.749586327E1,-8.599205971E0,-4.486542568E-2,3.558725595E0
1.750586327E1,-8.575278282E0,4.438686073E-1,3.388236761E0
1.751586327E1,-8.458029747E0,9.900303483E-1,2.974278450E0
1.752586327E1,-8.537590981E0,1.301097274E0,2.636890650E0
1.753586327E1,-8.766105652E0,1.655235052E0,2.365305185E0
1.754586327E1,-8.725427628E0,1.760519266E0,2.078166485E0
1.755586327E1,-8.560921669E0,1.966900229E0,1.767099500E0
1.756586327E1,-8.622536659E0,1.947757602E0,1.666600943E0
1.757586327E1,-8.812766075E0,1.597209096E0,1.591227055E0
1.758586327E1,-8.903095245E0,1.286142230E0,1.650449395E0
1.759586327E1,-8.574081421E0,6.640082598E-1,1.910070658E0
1.760586327E1,-8.331210136E0,3.708875179E-2,2.284547329E0
1.761586327E1,-8.164310455E0,-4.749752879E-1,2.447259426E0
1.762586327E1,-7.768298626E0,-8.907282352E-1,2.720041037E0
1.763586327E1,-7.597810268E0,-1.484148264E0,3.113062143E0
1.764586327E1,-7.555935860E0,-2.092523336E0,3.370888948E0
1.765586327E1,-7.531409264E0,-2.312663078E0,3.363112211E0
1.766586327E1,-7.646264553E0,-2.126022816E0,3.336791277E0
1.767586327E1,-7.970492363E0,-1.887338877E0,3.184846878E0
1.768586327E1,-8.160721779E0,-1.648056626E0,2.980858803E0
1.769586327E1,-8.361719131E0,-1.361516118E0,2.863012314E0
1.770586327E1,-8.514859200E0,-9.834501147E-1,2.821137905E0
1.771586327E1,-8.330014229E0,-6.669993401E-1,2.934797049E0
1.772586327E1,-8.155337334E0,-3.984049559E-1,3.134597778E0
1.773586327E1,-7.932207108E0,-2.207378894E-1,3.292523861E0
1.774586327E1,-7.745566845E0,-1.052841991E-1,3.278765202E0
1.775586327E1,-7.802994728E0,7.657032460E-2,3.181257725E0
1.776586327E1,-7.954938889E0,9.092725813E-2,3.103491068E0
1.777586327E1,-8.438288689E0,1.519442350E-1,3.109472990E0
1.778586327E1,-9.198010445E0,2.267199457E-1,3.026920557E0
1.779586327E1,-1.018146038E1,3.391826153E-1,2.770888567E0
1.780586327E1,-1.101775169E1,4.905286431E-1,2.601596355E0
1.781586327E1,-1.183071327E1,6.472585201E-1,2.595016241E0
1.782586327E1,-1.229372501E1,6.269195080E-1,3.088535786E0
1.783586327E1,-1.234696484E1,6.215356588E-1,3.800400496E0
1.784586327E1,-1.220339584E1,7.034898400E-1,4.350151539E0
1.785586327E1,-1.181575775E1,9.200403094E-1,4.905884743E0
1.786586327E1,-1.114935684E1,1.204187989E0,5.223531723E0
1.787586327E1,-1.072403336E1,1.133001566E0,5.313262463E0
1.788586327E1,-1.100818062E1,9.361918569E-1,4.997410297E0
1.789586327E1,-1.200658607E1,2.619542599E0,5.006981373E0
1.790586327E1,-1.273280716E1,3.087339401E0,4.171886444E0
1.791586327E1,-1.335434341E1,1.917249203E0,2.613560438E0
1.792586327E1,-1.413859081E1,6.370890141E-1,4.241278172E-1
1.793586327E1,-1.402373505E1,2.446661144E-1,-1.383649707E0
1.794586327E1,-1.289372444E1,-6.197410822E-1,-1.942971945E0
1.795586327E1,-1.185105228E1,-1.311864972E0,-1.777269006E0
1.796586327E1,-1.062652493E1,-1.424327731E0,-1.725225091E0
1.797586327E1,-9.480961800E0,-1.450050473E0,-1.473380566E0
1.798586327E1,-8.644669533E0,-1.285543919E0,-7.950153351E-1
1.799586327E1,-7.761718273E0,-9.242277741E-1,-7.776673418E-3
1.800586327E1,-7.150352478E0,-1.848455518E-1,5.168496966E-1
1.801586327E1,-6.664011002E0,3.571287692E-1,1.165902853E0
1.802586327E1,-6.498906136E0,6.927221417E-1,2.000998020E0
1.803586327E1,-6.805187702E0,9.361918569E-1,3.210569859E0
1.804586327E1,-7.283154011E0,8.536394835E-1,3.790829182E0
1.805586327E1,-7.900502205E0,6.658028960E-1,3.926621914E0
1.806586327E1,-8.432905197E0,5.210371017E-1,3.536591768E0
1.807586327E1,-8.969495773E0,3.182454109E-1,3.114258766E0
1.808586327E1,-9.465408325E0,2.213360965E-1,2.274976015E0
1.809586327E1,-9.651450157E0,9.631111473E-2,1.619940877E0
1.810586327E1,-9.677172661E0,-5.682953820E-2,1.339382529E0
1.811586327E1,-9.494720459E0,-1.621137410E-1,1.278963685E0
1.812586327E1,-9.452247620E0,-3.008974493E-1,1.371087432E0
1.813586327E1,-9.252447128E0,-4.677968323E-1,1.550549030E0
1.814586327E1,-8.939585686E0,-5.102694035E-1,1.896910191E0
1.815586327E1,-8.617152214E0,-1.932204217E-1,2.179263115E0
1.816586327E1,-8.429914474E0,4.534398913E-1,2.562713146E0
1.817586327E1,-8.379665375E0,1.033101201E0,2.726023197E0
1.818586327E1,-8.267202377E0,1.589432478E0,2.813361168E0
1.819586327E1,-7.986045361E0,1.838884234E0,2.866601467E0
1.820586327E1,-7.848458290E0,1.906481385E0,2.986242771E0
1.821586327E1,-7.747959614E0,1.849053741E0,3.049652576E0
1.822586327E1,-7.662416458E0,1.719841242E0,3.151347399E0
1.823586327E1,-7.691728592E0,1.590628862E0,3.233301640E0
1.824586327E1,-7.734799385E0,1.470389485E0,3.291327477E0
1.825586327E1,-7.835896015E0,1.590030670E0,3.351746321E0
1.826586327E1,-7.903493404E0,1.767099500E0,3.359523058E0
1.827586327E1,-7.975875854E0,1.934597135E0,3.376870871E0
1.828586327E1,-8.009375572E0,2.054238319E0,3.371487141E0
1.829586327E1,-8.075776100E0,2.164308071E0,3.250649452E0
1.830586327E1,-8.189435959E0,2.154736757E0,3.106482029E0
1.831586327E1,-8.346763611E0,2.015354872E0,3.087339401E0
1.832586327E1,-8.532805443E0,1.904686809E0,3.081955671E0
1.833586327E1,-8.848059654E0,1.558923960E0,3.115455151E0
1.834586327E1,-9.263813019E0,1.208375454E0,3.215355396E0
1.835586327E1,-9.713663101E0,8.673982024E-1,3.300898790E0
1.836586327E1,-1.038724327E1,3.248256743E-1,3.409772158E0
1.837586327E1,-1.094776154E1,-3.373879790E-1,3.735794306E0
1.838586327E1,-1.119541931E1,-8.267202377E-1,4.349553585E0
1.839586327E1,-1.120379353E1,-9.367900491E-1,4.828117847E0
1.840586327E1,-1.108833981E1,-6.681957245E-1,5.266602516E0
1.841586327E1,-1.089392376E1,-3.804588020E-1,5.461617470E0
1.842586327E1,-1.093819046E1,-3.230310678E-1,5.589633465E0
1.843586327E1,-1.159442234E1,-2.099701911E-1,5.068596363E0
1.844586327E1,-1.257069397E1,-6.526423693E-1,4.615755081E0
1.845586327E1,-1.295354557E1,-6.436693072E-1,4.086941242E0
1.846586327E1,-1.350030518E1,-2.428714931E-1,2.914458036E0
1.847586327E1,-1.401117325E1,2.015953064E-1,1.436291814E0
1.848586327E1,-1.402313709E1,1.293320656E0,1.190429255E-1
1.849586327E1,-1.292243862E1,1.200000525E0,-5.563312769E-1
1.850586327E1,-1.173799133E1,1.202991605E0,-9.541380405E-1
1.851586327E1,-1.057328510E1,1.090528965E0,-1.255633712E0
1.852586327E1,-9.600603104E0,7.286145091E-1,-1.418345571E0
1.853586327E1,-8.462815285E0,5.012963414E-1,-1.313061476E0
1.854586327E1,-7.650452137E0,2.973082066E-1,-5.318048596E-1
1.855586327E1,-7.213163853E0,-9.930214286E-2,5.252245665E-1
1.856586327E1,-7.194021225E0,-6.305087805E-1,1.322034478E0
1.857586327E1,-7.519444942E0,-1.191625714E0,2.164906263E0
1.858586327E1,-7.734799385E0,-1.326221943E0,2.848057270E0
1.859586327E1,-7.970492363E0,-1.326820135E0,3.629911900E0
1.860586327E1,-8.243273735E0,-1.068993568E0,4.165904045E0
1.861586327E1,-8.521439552E0,-4.995017350E-1,4.169493675E0
1.862586327E1,-8.710473061E0,4.671986103E-1,3.573680639E0
1.863586327E1,-8.989236832E0,1.295115232E0,2.939582586E0
1.864586327E1,-9.480961800E0,1.820937991E0,2.621935368E0
1.865586327E1,-9.815358162E0,2.322832584E0,2.444268227E0
1.866586327E1,-1.009531879E1,2.968894720E0,1.978864312E0
1.867586327E1,-1.007737255E1,3.232703447E0,1.456032634E0
1.868586327E1,-9.980463028E0,2.839682341E0,1.387837172E0
1.869586327E1,-9.838089943E0,2.222334146E0,1.709073544E0
1.870586327E1,-9.300303459E0,1.332802176E0,2.316252232E0
1.871586327E1,-8.499904633E0,6.113662124E-1,2.871387243E0
1.872586327E1,-7.587042332E0,-2.626122832E-1,3.204587698E0
1.873586327E1,-7.079763889E0,-1.042672515E0,3.361915827E0
1.874586327E1,-6.912266254E0,-1.569093466E0,3.495913982E0
1.875586327E1,-6.713063717E0,-2.392224550E0,3.316452265E0
1.876586327E1,-6.601199627E0,-2.741576433E0,3.195614576E0
1.877586327E1,-6.845865726E0,-2.416152716E0,3.177070379E0
1.878586327E1,-7.286144733E0,-2.312064886E0,3.216551781E0
1.879586327E1,-7.697710514E0,-1.800599098E0,3.090330362E0
1.880586327E1,-7.980661869E0,-1.403390527E0,3.090330362E0
1.881586327E1,-8.243273735E0,-1.025922656E0,2.937788010E0
1.882586327E1,-8.210970879E0,-4.941178858E-1,2.929413080E0
1.883586327E1,-7.959126472E0,-1.728814393E-1,3.091526747E0
1.884586327E1,-7.774878979E0,-6.221338734E-2,3.311666489E0
1.885586327E1,-7.565506935E0,4.366901144E-2,3.474378586E0
1.886586327E1,-7.576274872E0,2.255235314E-1,3.559323788E0
1.887586327E1,-7.676773071E0,1.968096644E-1,3.544368505E0
1.888586327E1,-7.929215908E0,1.244267747E-1,3.490530014E0
1.889586327E1,-8.402995110E0,-3.469592705E-2,3.555136204E0
1.890586327E1,-9.186046600E0,-2.327020019E-1,3.460619688E0
1.891586327E1,-9.964909554E0,-3.212364316E-1,3.341576815E0
1.892586327E1,-1.086640549E1,-3.134597540E-1,3.058027267E0
1.893586327E1,-1.154536915E1,-2.578266263E-1,2.990430117E0
1.894586327E1,-1.189890862E1,-1.818545163E-1,3.556332588E0
1.895586327E1,-1.193659592E1,-1.244267747E-1,4.152743816E0
1.896586327E1,-1.175115204E1,8.195417374E-2,4.807180882E0
1.897586327E1,-1.147418308E1,3.361915946E-1,5.467001438E0
1.898586327E1,-1.127198887E1,6.909275651E-1,5.795416355E0
1.899586327E1,-1.071924686E1,1.085145116E0,5.906084538E0
1.900586327E1,-1.028315544E1,9.714859724E-1,5.881557941E0
1.901586327E1,-1.055115128E1,1.052243710E0,5.204987526E0
1.902586327E1,-1.098006535E1,2.095514536E0,4.735994339E0
1.903586327E1,-1.116251755E1,2.496910334E0,4.101297855E0
1.904586327E1,-1.201914787E1,6.897311211E-1,2.760719061E0
1.905586327E1,-1.307498074E1,1.603191197E-1,9.032905698E-1
1.906586327E1,-1.323470211E1,1.118644550E-1,-8.673982322E-2
1.907586327E1,-1.263709450E1,-4.420739710E-1,-5.276173949E-1
1.908586327E1,-1.157169056E1,-9.954141974E-1,-8.171489239E-1
1.909586327E1,-1.057567787E1,-1.117448211E0,-9.625129104E-1
1.910586327E1,-9.945767403E0,-9.864411354E-1,-8.159525394E-1
1.911586327E1,-9.116056442E0,-1.018146038E0,-4.989035130E-1
1.912586327E1,-8.137392044E0,-6.329016089E-1,2.075773627E-1
1.913586327E1,-7.529614449E0,-1.381855011E-1,6.765705943E-1
1.914586327E1,-7.180860519E0,2.123630047E-1,1.197009563E0
1.915586327E1,-7.062416077E0,7.106683254E-1,1.872981906E0
1.916586327E1,-7.083951473E0,1.107876897E0,2.677568436E0
1.917586327E1,-7.318448067E0,1.323230863E0,3.266801119E0
1.918586327E1,-7.862216949E0,1.389033556E0,3.672982693E0
1.919586327E1,-8.478966713E0,1.167099237E0,3.756731510E0
1.920586327E1,-9.037691116E0,9.649057388E-1,3.735196114E0
1.921586327E1,-9.450452805E0,9.589236975E-1,3.311666489E0
1.922586327E1,-9.755537987E0,7.040880919E-1,2.556730986E0
1.923586327E1,-9.921838760E0,8.333004713E-1,1.789831281E0
1.924586327E1,-1.001336479E1,6.945167780E-1,1.255035520E0
1.925586327E1,-9.924231529E0,4.983053207E-1,9.367900491E-1
1.926586327E1,-9.651450157E0,2.781656384E-1,9.547362328E-1
1.927586327E1,-9.203393936E0,-2.620140910E-1,1.291526079E0
1.928586327E1,-8.904291153E0,-5.150550604E-1,1.653440475E0
1.929586327E1,-8.544171333E0,-3.224328458E-1,2.036890268E0
1.930586327E1,-8.203194618E0,1.716850251E-1,2.360519648E0
1.931586327E1,-7.938189030E0,7.088736892E-1,2.606980324E0
1.932586327E1,-7.844869137E0,1.120439172E0,2.772084951E0
1.933586327E1,-7.832306862E0,1.441675663E0,2.894119024E0
1.934586327E1,-7.795217991E0,1.719243050E0,2.992822886E0
1.935586327E1,-7.743772507E0,1.853839397E0,3.107080221E0
1.936586327E1,-7.768897057E0,1.944766641E0,3.220739365E0
1.937586327E1,-7.879564762E0,1.901097536E0,3.306282759E0
1.938586327E1,-7.965108395E0,1.752742529E0,3.321237803E0
1.939586327E1,-8.094321251E0,1.704287887E0,3.334996462E0
1.940586327E1,-8.161917686E0,1.680359721E0,3.387040377E0
1.941586327E1,-8.215158463E0,1.607976794E0,3.535395384E0
1.942586327E1,-8.215756416E0,1.507478237E0,3.607778311E0
1.943586327E1,-8.187042236E0,1.469193101E0,3.637090445E0
1.944586327E1,-8.129614830E0,1.397408366E0,3.661616802E0
1.945586327E1,-8.139784813E0,1.321436286E0,3.753142357E0
1.946586327E1,-8.210970879E0,1.239482164E0,3.724428415E0
1.947586327E1,-8.429914474E0,1.124028444E0,3.589832067E0
1.948586327E1,-8.881559372E0,9.744769931E-1,3.263211966E0
1.949586327E1,-9.519845009E0,8.823533654E-1,3.001197815E0
1.950586327E1,-1.017488003E1,8.709874153E-1,2.953939438E0
1.951586327E1,-1.069113159E1,7.788637877E-1,2.936591625E0
1.952586327E1,-1.120020485E1,6.532405615E-1,3.282952785E0
1.953586327E1,-1.170748329E1,5.611169338E-1,3.948755503E0
1.954586327E1,-1.197368431E1,6.179464459E-1,4.366901398E0
1.955586327E1,-1.201077366E1,7.040880919E-1,4.796412945E0
1.956586327E1,-1.189352512E1,5.796613097E-1,5.146961689E0
1.957586327E1,-1.176072311E1,3.643072546E-1,5.364109993E0
1.958586327E1,-1.192223835E1,1.914258152E-1,5.301896572E0
1.959586327E1,-1.225543976E1,-4.606183469E-1,5.242674351E0
1.960586327E1,-1.190010548E1,-9.912267923E-1,4.618147850E0
1.961586327E1,-1.173858929E1,-8.039883971E-1,3.394817114E0
1.962586327E1,-1.225902843E1,-4.319044948E-1,1.328614831E0
1.963586327E1,-1.262154102E1,4.582255483E-1,-3.332005441E-1
1.964586327E1,-1.200359440E1,7.567301393E-1,-1.105484009E0
1.965586327E1,-1.101117134E1,3.756731451E-1,-1.377667665E0
1.966586327E1,-9.786046028E0,2.392822690E-2,-1.371087432E0
1.967586327E1,-8.676374435E0,-1.890329868E-1,-1.362114310E0
1.968586327E1,-7.944170952E0,-4.313062727E-1,-6.765705943E-1
1.969586327E1,-7.600203037E0,-6.460621357E-1,2.033899166E-2
1.970586327E1,-7.673183918E0,-5.407779217E-1,7.549355626E-1
1.971586327E1,-8.204390526E0,-5.659025311E-1,1.458425403E0
1.972586327E1,-8.462217331E0,-8.733802438E-1,2.099103689E0
1.973586327E1,-8.553144455E0,-8.638089895E-1,2.724228621E0
1.974586327E1,-8.682954788E0,-6.101697683E-1,3.371487141E0
1.975586327E1,-8.728418350E0,-4.546362907E-2,3.596412420E0
1.976586327E1,-8.709874153E0,5.820540786E-1,3.458226919E0
1.977586327E1,-8.690134048E0,1.343569875E0,3.147160053E0
1.978586327E1,-8.941978455E0,1.956132531E0,2.758924484E0
1.979586327E1,-9.255437851E0,2.372483730E0,2.380858421E0
1.980586327E1,-9.306285858E0,2.664407969E0,2.105684042E0
1.981586327E1,-9.357132912E0,2.740978241E0,1.789831281E0
1.982586327E1,-9.311669350E0,2.410170555E0,1.572682738E0
1.983586327E1,-9.148957253E0,1.639681697E0,1.775474429E0
1.984586327E1,-9.111868858E0,1.093519926E0,2.075773716E0
1.985586327E1,-8.863613129E0,6.155536175E-1,2.286342144E0
1.986586327E1,-8.313861847E0,-9.690931439E-2,2.553141832E0
1.987586327E1,-7.840681553E0,-6.514459848E-1,2.746960402E0
1.988586327E1,-7.449455261E0,-1.344766378E0,3.002992392E0
1.989586327E1,-7.357929707E0,-1.905285001E0,3.084348440E0
1.990586327E1,-7.246663570E0,-2.106282234E0,2.971885681E0
1.991586327E1,-7.290332317E0,-2.039283037E0,3.066402197E0
1.992586327E1,-7.549355507E0,-1.910668850E0,3.154338360E0
1.993586327E1,-7.946564198E0,-1.441675663E0,3.033500910E0
1.994586327E1,-8.137989998E0,-1.150349498E0,2.986840963E0
1.995586327E1,-8.382058144E0,-9.302098155E-1,2.955136061E0
1.996586327E1,-8.640482903E0,-5.670989752E-1,2.869592667E0
1.997586327E1,-8.670392990E0,-2.123630047E-1,2.880958557E0
1.998586327E1,-8.461020470E0,8.374879137E-3,2.986242771E0
1.999586327E1,-8.166703224E0,1.381855011E-1,3.206980467E0
2.000586327E1,-7.957930088E0,3.206382394E-1,3.374478102E0
2.001586327E1,-7.967501163E0,3.110669553E-1,3.403192043E0
2.002586327E1,-8.124829292E0,3.248256743E-1,3.354139090E0
2.003586327E1,-8.507680893E0,3.433700502E-1,3.337389469E0
2.004586327E1,-9.123832703E0,3.272185028E-1,3.270988464E0
2.005586327E1,-9.993623734E0,2.392822653E-1,3.241676569E0
2.006586327E1,-1.077308559E1,1.178465188E-1,3.241676569E0
2.007586327E1,-1.152861977E1,-5.144568533E-2,3.294916868E0
2.008586327E1,-1.187019539E1,-1.674975902E-1,3.556332588E0
2.009586327E1,-1.196351528E1,-3.349951804E-1,3.948755503E0
2.010586327E1,-1.183669567E1,-3.684946895E-1,4.241278172E0
2.011586327E1,-1.140838051E1,-3.912265003E-1,4.564309120E0
2.012586327E1,-1.071745300E1,-3.565305769E-1,4.826921463E0
2.013586327E1,-1.004985523E1,-2.303091735E-1,5.036293507E0
2.014586327E1,-9.392427444E0,-1.710868180E-1,5.384449005E0
2.015586327E1,-9.608977318E0,-1.142572835E-1,5.521438122E0
2.016586327E1,-1.054576778E1,1.852044702E0,5.572285652E0
2.017586327E1,-1.141376400E1,2.774477959E0,4.986044407E0
2.018586327E1,-1.211426258E1,2.039881229E0,3.567100286E0
2.019586327E1,-1.361396408E1,1.820937991E0,9.349954724E-1
2.020586327E1,-1.431924915E1,1.666002750E0,-1.252044439E0
2.021586327E1,-1.386341572E1,1.030110121E0,-1.918445587E0
2.022586327E1,-1.259880924E1,1.088734269E-1,-1.926820397E0
2.023586327E1,-1.104526901E1,-3.954139352E-1,-1.721037745E0
2.024586327E1,-9.999606133E0,-5.078766346E-1,-1.464407444E0
2.025586327E1,-8.927022934E0,-7.064808607E-1,-9.541380405E-1
2.026586327E1,-7.944769382E0,-5.748756528E-1,-1.794616925E-3
2.027586327E1,-7.109674454E0,-6.999006122E-2,7.214360237E-1
2.028586327E1,-6.631109715E0,3.906283081E-1,1.218544960E0
2.029586327E1,-6.346364021E0,7.651050687E-1,2.025524378E0
2.030586327E1,-6.296712875E0,9.852447510E-1,2.974876642E0
2.031586327E1,-6.814758778E0,1.003190875E0,3.812364578E0
2.032586327E1,-7.505686283E0,8.386843204E-1,4.171886444E0
2.033586327E1,-8.495118141E0,5.635097623E-1,4.133601189E0
2.034586327E1,-9.533603668E0,4.366901219E-1,3.620938778E0
2.035586327E1,-1.006301594E1,1.764706671E-1,2.912065268E0
2.036586327E1,-1.038544846E1,1.316052489E-2,1.940579176E0
2.037586327E1,-1.048953629E1,2.273181453E-2,1.232901812E0
2.038586327E1,-1.042433167E1,-3.080759048E-1,8.913264275E-1
2.039586327E1,-1.024546814E1,-4.319044948E-1,6.502495408E-1
2.040586327E1,-9.720842361E0,-4.354937077E-1,8.446664214E-1
2.041586327E1,-9.175278664E0,-2.428714931E-1,1.358525038E0
2.042586327E1,-8.481359482E0,2.620140910E-1,1.794616938E0
2.043586327E1,-7.974081516E0,8.374879360E-1,2.238485575E0
2.044586327E1,-7.424330235E0,1.389631748E0,2.701496840E0
2.045586327E1,-7.227520943E0,1.835893154E0,3.153740168E0
2.046586327E1,-7.121040344E0,2.262413740E0,3.476173162E0
2.047586327E1,-7.045666218E0,2.472982168E0,3.561118364E0
2.048586327E1,-7.059424877E0,2.487339020E0,3.513261795E0
2.049586327E1,-7.220940590E0,2.424527645E0,3.378665686E0
2.050586327E1,-7.445865631E0,2.337787628E0,3.378067255E0
2.051586327E1,-7.707880020E0,2.030908108E0,3.382853031E0
2.052586327E1,-7.956135273E0,1.700100541E0,3.379263878E0
2.053586327E1,-8.233702660E0,1.521835208E0,3.445066452E0
2.054586327E1,-8.458029747E0,1.387238979E0,3.473181963E0
2.055586327E1,-8.683553696E0,1.214357495E0,3.578466177E0
2.056586327E1,-8.876175880E0,1.012762189E0,3.793222189E0
2.057586327E1,-9.040083885E0,7.920243144E-1,4.042075634E0
2.058586327E1,-9.242277145E0,6.047859192E-1,4.271786690E0
2.059586327E1,-9.672387123E0,2.685943544E-1,4.347160339E0
2.060586327E1,-1.017607689E1,-9.631111473E-2,4.055236340E0
2.061586327E1,-1.047398281E1,-3.655036688E-1,3.658027649E0
2.062586327E1,-1.072881889E1,-6.628118753E-1,3.333800077E0
