"Time (s)","Gyroscope x (rad/s)","Gyroscope y (rad/s)","Gyroscope z (rad/s)"
3.433446200E-2,3.970623948E-3,9.666942805E-2,6.001751125E-2
4.433446200E-2,5.192354787E-3,1.087340117E-1,5.024366826E-2
5.433446200E-2,2.748893574E-3,1.195768714E-1,5.513058975E-2
6.433446200E-2,3.970623948E-3,9.544769675E-2,5.146539584E-2
7.433446200E-2,8.704829961E-3,5.177082866E-2,4.550946131E-2
8.433446200E-2,1.221730467E-2,1.893682219E-2,3.940080851E-2
9.433446200E-2,1.588249579E-2,1.282817032E-2,3.207042441E-2
1.043344620E-1,2.214386500E-2,3.222314268E-2,3.084869497E-2
1.143344620E-1,2.947424725E-2,6.123924255E-2,3.207042441E-2
1.243344620E-1,3.329215571E-2,8.552113175E-2,2.611448988E-2
1.343344620E-1,3.695734590E-2,8.429940045E-2,2.000583708E-2
1.443344620E-1,4.169155285E-2,5.879577994E-2,1.267545391E-2
1.543344620E-1,3.924809024E-2,3.329215571E-2,1.389718428E-2
1.643344620E-1,4.046982154E-2,2.718350291E-2,9.162978269E-3
1.743344620E-1,4.291328415E-2,3.573561832E-2,7.941247895E-3
1.843344620E-1,3.802636266E-2,2.489275858E-2,6.719517522E-3
1.943344620E-1,4.046982154E-2,2.962696366E-2,7.941247895E-3
2.043344620E-1,4.046982154E-2,1.756237634E-2,6.719517522E-3
2.143344620E-1,3.558290005E-2,3.940080851E-2,1.267545391E-2
2.243344620E-1,4.046982154E-2,4.657847434E-2,1.023199316E-2
2.343344620E-1,3.817907721E-2,8.536841720E-2,1.634064503E-2
2.443344620E-1,4.077525437E-2,1.194241568E-1,2.000583708E-2
2.543344620E-1,4.321871698E-2,1.314887404E-1,2.489275858E-2
2.643344620E-1,3.955352306E-2,1.375973970E-1,2.840523422E-2
2.743344620E-1,3.833179548E-2,1.363756657E-1,3.084869497E-2
2.843344620E-1,3.573561832E-2,1.182024255E-1,2.962696366E-2
2.943344620E-1,3.329215571E-2,1.096503139E-1,2.718350291E-2
3.043344620E-1,2.962696366E-2,1.098030284E-1,2.718350291E-2
3.143344620E-1,2.351831272E-2,1.012509167E-1,2.840523422E-2
3.243344620E-1,2.962696366E-2,1.036943719E-1,3.207042441E-2
3.343344620E-1,2.367102914E-2,1.134682223E-1,2.351831272E-2
3.443344620E-1,2.122756653E-2,1.328631938E-1,2.351831272E-2
3.543344620E-1,1.893682219E-2,1.437060535E-1,2.474004216E-2
3.643344620E-1,1.771509275E-2,1.449277848E-1,2.474004216E-2
3.743344620E-1,1.404990070E-2,1.424843222E-1,2.458732575E-2
3.843344620E-1,1.282817032E-2,1.255328059E-1,2.351831272E-2
3.943344620E-1,1.267545391E-2,7.590000331E-2,1.740965992E-2
4.043344620E-1,4.627304152E-2,-6.123924255E-2,-9.010262787E-3
4.143344620E-1,4.581489135E-3,-1.058324054E-1,1.389718428E-2
4.243344620E-1,1.099557430E-2,-2.825251780E-2,2.367102914E-2
4.343344620E-1,6.261368748E-3,9.315694682E-3,1.740965992E-2
4.443344620E-1,2.748893574E-3,2.993239649E-2,1.496619824E-2
4.543344620E-1,3.970623948E-3,2.871066704E-2,1.618792862E-2
4.643344620E-1,5.192354787E-3,2.748893574E-2,1.252273750E-2
4.743344620E-1,6.414085161E-3,2.993239649E-2,1.374446787E-2
4.843344620E-1,2.748893574E-3,3.833179548E-2,1.496619824E-2
4.943344620E-1,-2.138028387E-3,4.444044828E-2,1.863138936E-2
5.043344620E-1,-5.803219974E-3,4.932736978E-2,2.336559631E-2
5.143344620E-1,-8.246680722E-3,5.054909736E-2,2.336559631E-2
5.243344620E-1,-7.024950348E-3,5.421429127E-2,2.580905706E-2
5.343344620E-1,-8.246680722E-3,5.177082866E-2,2.580905706E-2
5.443344620E-1,-4.581489135E-3,4.932736978E-2,2.458732575E-2
5.543344620E-1,-3.359758761E-3,4.092797264E-2,2.718350291E-2
5.643344620E-1,8.704829961E-3,3.466660157E-2,2.596177347E-2
5.743344620E-1,1.970040426E-2,3.466660157E-2,2.351831272E-2
5.843344620E-1,2.947424725E-2,3.695734590E-2,2.000583708E-2
5.943344620E-1,3.069597855E-2,4.062253982E-2,2.000583708E-2
6.043344620E-1,3.787364438E-2,2.962696366E-2,2.489275858E-2
6.143344620E-1,4.276056588E-2,1.756237634E-2,2.489275858E-2
6.243344620E-1,4.749477282E-2,9.010262787E-3,2.626720630E-2
6.343344620E-1,5.864306539E-2,6.566801574E-3,1.282817032E-2
6.443344620E-1,7.208210230E-2,8.857546374E-3,7.635815418E-4
6.543344620E-1,8.674286306E-2,2.092213556E-2,-7.635815535E-3
6.643344620E-1,1.026253626E-1,3.039054573E-2,-1.374446787E-2
6.743344620E-1,1.111774743E-1,4.612032697E-2,-1.725694351E-2
6.843344620E-1,1.270599663E-1,5.696318299E-2,-1.970040426E-2
6.943344620E-1,1.319468915E-1,5.558873713E-2,-3.436116874E-2
7.043344620E-1,1.296561509E-1,4.963280261E-2,-3.909537569E-2
7.143344620E-1,1.284344196E-1,4.718934000E-2,-4.764748737E-2
7.243344620E-1,1.272126883E-1,4.230241850E-2,-5.253441259E-2
7.343344620E-1,1.272126883E-1,4.596760869E-2,-5.375614017E-2
7.443344620E-1,1.272126883E-1,5.329799280E-2,-5.742133409E-2
7.543344620E-1,1.224784851E-1,7.024950534E-2,-5.879577994E-2
7.643344620E-1,1.163698286E-1,8.002334833E-2,-5.390885845E-2
7.743344620E-1,1.116356254E-1,8.613199741E-2,-5.268712714E-2
7.843344620E-1,1.018617824E-1,8.246681094E-2,-5.161811411E-2
7.943344620E-1,9.575312585E-2,7.162395120E-2,-4.795292020E-2
8.043344620E-1,9.193521738E-2,5.345070735E-2,-4.550946131E-2
8.143344620E-1,8.704829961E-2,3.527746722E-2,-4.184427112E-2
8.243344620E-1,8.200865984E-2,2.321287990E-2,-3.940080851E-2
8.343344620E-1,7.712173462E-2,1.481348183E-2,-3.695734590E-2
8.443344620E-1,7.223481685E-2,9.926560335E-3,-3.573561832E-2
8.543344620E-1,6.734789163E-2,3.054326226E-4,-3.573561832E-2
8.643344620E-1,6.123924255E-2,-4.428773187E-3,-3.466660157E-2
8.743344620E-1,5.635231733E-2,-1.985311974E-3,-2.977968007E-2
8.843344620E-1,5.146539584E-2,4.123340361E-3,-2.733621933E-2
8.943344620E-1,4.550946131E-2,1.023199316E-2,-2.367102914E-2
9.043344620E-1,4.062253982E-2,1.389718428E-2,-1.771509275E-2
9.143344620E-1,3.451388702E-2,1.634064503E-2,-1.771509275E-2
9.243344620E-1,3.329215571E-2,1.389718428E-2,-1.649336144E-2
9.343344620E-1,3.329215571E-2,1.267545391E-2,-1.404990070E-2
9.443344620E-1,3.329215571E-2,9.010262787E-3,-1.527163107E-2
9.543344620E-1,3.436116874E-2,5.497787148E-3,-9.162978269E-3
9.643344620E-1,3.436116874E-2,6.566801574E-3,-1.160643995E-2
9.743344620E-1,3.069597855E-2,4.276056774E-3,-6.719517522E-3
9.843344620E-1,2.825251780E-2,1.832595794E-3,-1.832595794E-3
9.943344620E-1,2.336559631E-2,6.108652451E-4,2.901609987E-3
1.004334462E0,1.725694351E-2,-5.345070735E-3,1.679879380E-3
1.014334462E0,1.481348183E-2,-7.788531948E-3,4.123340361E-3
1.024334462E0,1.481348183E-2,-5.345070735E-3,1.679879380E-3
1.034334462E0,1.970040426E-2,-1.679879380E-3,1.679879380E-3
1.044334462E0,1.970040426E-2,-4.581489484E-4,-5.650503561E-3
1.054334462E0,2.229658142E-2,5.497787148E-3,-1.298088674E-2
1.064334462E0,2.825251780E-2,1.267545391E-2,-7.941247895E-3
1.074334462E0,3.084869497E-2,1.389718428E-2,-1.282817032E-2
1.084334462E0,3.313944116E-2,1.267545391E-2,-5.497787148E-3
1.094334462E0,3.436116874E-2,-6.719517522E-3,-4.276056774E-3
1.104334462E0,3.298672289E-2,-2.367102914E-2,-5.497787148E-3
1.114334462E0,3.665191308E-2,-3.451388702E-2,-3.054326167E-3
1.124334462E0,3.787364438E-2,-3.451388702E-2,-6.108652451E-4
1.134334462E0,4.153883830E-2,-2.611448988E-2,-1.832595794E-3
1.144334462E0,4.153883830E-2,-1.756237634E-2,-1.832595794E-3
1.154334462E0,4.153883830E-2,-1.160643995E-2,-4.276056774E-3
1.164334462E0,3.924809024E-2,-6.719517522E-3,-4.276056774E-3
1.174334462E0,3.909537569E-2,-5.497787148E-3,-3.054326167E-3
1.184334462E0,3.436116874E-2,-3.054326167E-3,-5.497787148E-3
1.194334462E0,3.069597855E-2,3.054326167E-3,-4.276056774E-3
1.204334462E0,2.458732575E-2,1.832595794E-3,-3.207042580E-3
1.214334462E0,1.970040426E-2,6.108652451E-4,-1.985311974E-3
1.224334462E0,1.359175146E-2,-4.581489484E-4,-7.635815418E-4
1.234334462E0,8.704829961E-3,7.635815418E-4,4.581489484E-4
1.244334462E0,7.635815535E-3,4.428773187E-3,-7.635815418E-4
1.254334462E0,8.857546374E-3,6.872233935E-3,-1.985311974E-3
1.264334462E0,7.635815535E-3,1.038470957E-2,-3.207042580E-3
1.274334462E0,7.635815535E-3,1.527163107E-2,-4.428773187E-3
1.284334462E0,8.857546374E-3,1.649336144E-2,-4.428773187E-3
1.294334462E0,7.635815535E-3,1.771509275E-2,-5.650503561E-3
1.304334462E0,6.414085161E-3,1.771509275E-2,-3.207042580E-3
1.314334462E0,5.192354787E-3,2.138028294E-2,4.581489484E-4
1.324334462E0,1.527163084E-3,2.748893574E-2,1.527163084E-3
1.334334462E0,-2.138028387E-3,2.871066704E-2,6.414085161E-3
1.344334462E0,-8.246680722E-3,2.993239649E-2,6.414085161E-3
1.354334462E0,-1.191187184E-2,2.641992271E-2,7.635815535E-3
1.364334462E0,-1.679879427E-2,1.908953860E-2,7.635815535E-3
1.374334462E0,-1.924225502E-2,1.313360315E-2,1.130100712E-2
1.384334462E0,-2.046398632E-2,1.313360315E-2,1.237002108E-2
1.394334462E0,-2.290744707E-2,1.313360315E-2,1.603521220E-2
1.404334462E0,-2.412917651E-2,1.191187184E-2,1.603521220E-2
1.414334462E0,-2.657263726E-2,1.313360315E-2,1.603521220E-2
1.424334462E0,-2.779436857E-2,1.069014147E-2,1.847867295E-2
1.434334462E0,-2.779436857E-2,7.024950348E-3,1.847867295E-2
1.444334462E0,-2.657263726E-2,2.290744567E-3,1.847867295E-2
1.454334462E0,-2.657263726E-2,1.069014193E-3,1.847867295E-2
1.464334462E0,-2.290744707E-2,-1.527163113E-4,1.603521220E-2
1.474334462E0,-2.290744707E-2,-2.596177394E-3,1.603521220E-2
1.484334462E0,-2.290744707E-2,-8.704829961E-3,1.618792862E-2
1.494334462E0,-2.412917651E-2,-7.483099122E-3,1.603521220E-2
1.504334462E0,-2.290744707E-2,-6.261368748E-3,1.374446787E-2
1.514334462E0,-2.412917651E-2,-3.817907767E-3,1.481348183E-2
1.524334462E0,-2.412917651E-2,-2.596177394E-3,1.481348183E-2
1.534334462E0,-2.412917651E-2,-5.039638374E-3,1.603521220E-2
1.544334462E0,-2.290744707E-2,-6.261368748E-3,1.481348183E-2
1.554334462E0,-2.290744707E-2,-7.483099122E-3,1.481348183E-2
1.564334462E0,-2.290744707E-2,-1.114829071E-2,1.007927675E-2
1.574334462E0,-2.168571576E-2,-1.237002108E-2,7.635815535E-3
1.584334462E0,-2.168571576E-2,-1.359175146E-2,8.857546374E-3
1.594334462E0,-2.290744707E-2,-1.114829071E-2,1.007927675E-2
1.604334462E0,-2.168571576E-2,-9.926560335E-3,1.252273750E-2
1.614334462E0,-2.290744707E-2,-1.359175146E-2,1.252273750E-2
1.624334462E0,-2.428189293E-2,-1.603521220E-2,1.496619824E-2
1.634334462E0,-2.794708498E-2,-2.076941915E-2,1.359175146E-2
1.644334462E0,-2.672535367E-2,-2.076941915E-2,1.374446787E-2
1.654334462E0,-2.657263726E-2,-1.710422710E-2,1.359175146E-2
1.664334462E0,-2.535090782E-2,-1.359175146E-2,1.252273750E-2
1.674334462E0,-2.657263726E-2,-6.261368748E-3,1.237002108E-2
1.684334462E0,-2.412917651E-2,-2.596177394E-3,1.252273750E-2
1.694334462E0,-2.657263726E-2,1.069014193E-3,1.359175146E-2
1.704334462E0,-2.901609987E-2,3.512475174E-3,1.359175146E-2
1.714334462E0,-3.023782931E-2,4.734205548E-3,1.481348183E-2
1.724334462E0,-3.390302137E-2,-1.527163113E-4,1.970040426E-2
1.734334462E0,-3.390302137E-2,-7.483099122E-3,2.092213556E-2
1.744334462E0,-3.283400834E-2,-1.466076635E-2,2.458732575E-2
1.754334462E0,-3.039054573E-2,-1.954768784E-2,2.336559631E-2
1.764334462E0,-3.039054573E-2,-1.954768784E-2,2.336559631E-2
1.774334462E0,-3.161227703E-2,-2.199114859E-2,2.458732575E-2
1.784334462E0,-3.283400834E-2,-2.321287990E-2,2.580905706E-2
1.794334462E0,-3.527746722E-2,-2.672535367E-2,2.580905706E-2
1.804334462E0,-3.649919853E-2,-2.672535367E-2,2.703078650E-2
1.814334462E0,-3.894266114E-2,-3.039054573E-2,2.703078650E-2
1.824334462E0,-4.016438872E-2,-3.405573592E-2,2.825251780E-2
1.834334462E0,-4.138612002E-2,-3.405573592E-2,2.825251780E-2
1.844334462E0,-4.138612002E-2,-3.649919853E-2,2.825251780E-2
1.854334462E0,-4.627304152E-2,-3.283400834E-2,3.069597855E-2
1.864334462E0,-4.749477282E-2,-3.039054573E-2,3.176499158E-2
1.874334462E0,-5.115996301E-2,-2.916881628E-2,3.665191308E-2
1.884334462E0,-5.482515693E-2,-2.779436857E-2,3.665191308E-2
1.894334462E0,-5.971207842E-2,-2.657263726E-2,4.031710699E-2
1.904334462E0,-6.704246253E-2,-2.412917651E-2,4.627304152E-2
1.914334462E0,-7.070764899E-2,-2.657263726E-2,4.749477282E-2
1.924334462E0,-7.559457421E-2,-2.535090782E-2,4.993823543E-2
1.934334462E0,-8.155050874E-2,-2.275473066E-2,4.749477282E-2
1.944334462E0,-8.155050874E-2,-1.802052557E-2,4.749477282E-2
1.954334462E0,-8.277224004E-2,-1.313360315E-2,4.382958263E-2
1.964334462E0,-8.277224004E-2,-5.803219974E-3,4.260785133E-2
1.974334462E0,-7.788532227E-2,-3.512475174E-3,4.138612002E-2
1.984334462E0,-7.666359097E-2,-3.512475174E-3,3.894266114E-2
1.994334462E0,-7.177666575E-2,-5.955935922E-3,3.772092983E-2
2.004334462E0,-6.811147183E-2,-7.177666761E-3,3.772092983E-2
2.014334462E0,-6.078109145E-2,-1.084285788E-2,3.665191308E-2
2.024334462E0,-5.467243865E-2,-1.206458826E-2,3.420845419E-2
2.034334462E0,-5.100724846E-2,-8.552113548E-3,3.298672289E-2
2.044334462E0,-4.489859566E-2,-3.665191587E-3,2.932153270E-2
2.054334462E0,-4.001167417E-2,1.069014193E-3,2.580905706E-2
2.064334462E0,-3.878994286E-2,-1.527163113E-4,2.214386500E-2
2.074334462E0,-3.390302137E-2,-1.374446787E-3,1.847867295E-2
2.084334462E0,-2.779436857E-2,-5.039638374E-3,1.847867295E-2
2.094334462E0,-2.535090782E-2,-1.114829071E-2,1.603521220E-2
2.104334462E0,-1.817324013E-2,-1.725694351E-2,1.374446787E-2
2.114334462E0,-1.206458826E-2,-2.458732575E-2,1.374446787E-2
2.124334462E0,-4.734205548E-3,-2.947424725E-2,1.007927675E-2
2.134334462E0,3.665191587E-3,-3.313944116E-2,7.788531948E-3
2.144334462E0,8.552113548E-3,-2.947424725E-2,6.566801574E-3
2.154334462E0,1.221730467E-2,-2.840523422E-2,4.123340361E-3
2.164334462E0,1.359175146E-2,-2.474004216E-2,1.679879380E-3
2.174334462E0,1.603521220E-2,-2.474004216E-2,1.679879380E-3
2.184334462E0,1.725694351E-2,-2.474004216E-2,-1.985311974E-3
2.194334462E0,1.970040426E-2,-2.474004216E-2,-3.054326167E-3
2.204334462E0,2.199114859E-2,-3.084869497E-2,-4.276056774E-3
2.214334462E0,2.443460934E-2,-3.573561832E-2,-7.941247895E-3
2.224334462E0,2.565634064E-2,-3.573561832E-2,-1.038470957E-2
2.234334462E0,2.580905706E-2,-3.207042441E-2,-1.038470957E-2
2.244334462E0,2.947424725E-2,-2.840523422E-2,-1.038470957E-2
2.254334462E0,3.176499158E-2,-2.855795063E-2,-1.038470957E-2
2.264334462E0,3.420845419E-2,-3.084869497E-2,-7.941247895E-3
2.274334462E0,3.298672289E-2,-3.573561832E-2,-7.941247895E-3
2.284334462E0,3.298672289E-2,-4.184427112E-2,-7.941247895E-3
2.294334462E0,2.809980139E-2,-5.146539584E-2,-9.162978269E-3
2.304334462E0,2.199114859E-2,-5.864306539E-2,-6.719517522E-3
2.314334462E0,2.321287990E-2,-6.352998316E-2,-9.162978269E-3
2.324334462E0,2.809980139E-2,-6.246097013E-2,-1.038470957E-2
2.334334462E0,3.054326214E-2,-5.757404864E-2,-1.160643995E-2
2.344334462E0,3.176499158E-2,-5.390885845E-2,-1.282817032E-2
2.354334462E0,3.298672289E-2,-4.673119262E-2,-1.160643995E-2
2.364334462E0,2.809980139E-2,-3.940080851E-2,-1.282817032E-2
2.374334462E0,2.687807009E-2,-3.817907721E-2,-1.160643995E-2
2.384334462E0,2.809980139E-2,-3.695734590E-2,-1.282817032E-2
2.394334462E0,2.932153270E-2,-3.695734590E-2,-1.282817032E-2
2.404334462E0,2.947424725E-2,-3.817907721E-2,-1.649336144E-2
2.414334462E0,2.703078650E-2,-3.940080851E-2,-1.527163107E-2
2.424334462E0,2.809980139E-2,-4.062253982E-2,-1.282817032E-2
2.434334462E0,2.932153270E-2,-3.940080851E-2,-1.282817032E-2
2.444334462E0,3.298672289E-2,-3.329215571E-2,-1.160643995E-2
2.454334462E0,3.298672289E-2,-3.084869497E-2,-9.162978269E-3
2.464334462E0,3.176499158E-2,-2.962696366E-2,-7.941247895E-3
2.474334462E0,2.932153270E-2,-2.840523422E-2,-6.719517522E-3
2.484334462E0,2.336559631E-2,-3.084869497E-2,-9.162978269E-3
2.494334462E0,1.970040426E-2,-2.718350291E-2,-1.160643995E-2
2.504334462E0,1.970040426E-2,-1.878410578E-2,-1.282817032E-2
2.514334462E0,2.214386500E-2,-9.010262787E-3,-1.404990070E-2
2.524334462E0,2.703078650E-2,-1.832595794E-3,-1.160643995E-2
2.534334462E0,2.947424725E-2,1.832595794E-3,-1.160643995E-2
2.544334462E0,3.191770986E-2,3.054326167E-3,-1.038470957E-2
2.554334462E0,2.947424725E-2,4.276056774E-3,-1.038470957E-2
2.564334462E0,2.580905706E-2,4.276056774E-3,-1.038470957E-2
2.574334462E0,2.458732575E-2,5.497787148E-3,-9.162978269E-3
2.584334462E0,1.985312067E-2,6.719517522E-3,-9.315694682E-3
2.594334462E0,1.863138936E-2,1.160643995E-2,-8.093964309E-3
2.604334462E0,1.985312067E-2,1.649336144E-2,-1.053742506E-2
2.614334462E0,2.229658142E-2,2.244929783E-2,-1.175915636E-2
2.624334462E0,2.474004216E-2,3.100141138E-2,-1.053742506E-2
2.634334462E0,3.084869497E-2,4.184427112E-2,-1.404990070E-2
2.644334462E0,3.466660157E-2,5.268712714E-2,-1.649336144E-2
2.654334462E0,3.588833287E-2,6.123924255E-2,-1.771509275E-2
2.664334462E0,3.711006418E-2,6.841690838E-2,-1.527163107E-2
2.674334462E0,3.466660157E-2,7.330382615E-2,-1.649336144E-2
2.684334462E0,3.344487399E-2,7.208210230E-2,-1.649336144E-2
2.694334462E0,3.100141138E-2,6.963863969E-2,-1.649336144E-2
2.704334462E0,2.733621933E-2,6.123924255E-2,-1.664607786E-2
2.714334462E0,2.367102914E-2,5.268712714E-2,-1.908953860E-2
2.724334462E0,1.756237634E-2,4.306599870E-2,-1.786780916E-2
2.734334462E0,1.511891466E-2,3.833179548E-2,-1.786780916E-2
2.744334462E0,1.145372353E-2,2.855795063E-2,-1.908953860E-2
2.754334462E0,1.023199316E-2,3.100141138E-2,-1.908953860E-2
2.764334462E0,1.023199316E-2,3.711006418E-2,-1.542434748E-2
2.774334462E0,1.389718428E-2,3.955352306E-2,-1.298088674E-2
2.784334462E0,1.511891466E-2,4.428773001E-2,-1.053742506E-2
2.794334462E0,2.000583708E-2,4.917465150E-2,-1.053742506E-2
2.804334462E0,2.244929783E-2,5.390885845E-2,-1.420261711E-2
2.814334462E0,2.611448988E-2,5.513058975E-2,-1.420261711E-2
2.824334462E0,2.855795063E-2,5.757404864E-2,-1.893682219E-2
2.834334462E0,2.855795063E-2,6.001751125E-2,-2.138028294E-2
2.844334462E0,2.855795063E-2,5.513058975E-2,-2.015855350E-2
2.854334462E0,3.100141138E-2,4.780020565E-2,-1.649336144E-2
2.864334462E0,2.962696366E-2,4.062253982E-2,-1.404990070E-2
2.874334462E0,3.084869497E-2,3.207042441E-2,-9.162978269E-3
2.884334462E0,2.962696366E-2,2.733621933E-2,-6.719517522E-3
2.894334462E0,2.718350291E-2,2.122756653E-2,-3.054326167E-3
2.904334462E0,2.474004216E-2,1.756237634E-2,-1.985311974E-3
2.914334462E0,2.336559631E-2,1.649336144E-2,1.679879380E-3
2.924334462E0,2.458732575E-2,2.122756653E-2,1.679879380E-3
2.934334462E0,2.596177347E-2,2.977968007E-2,4.123340361E-3
2.944334462E0,2.474004216E-2,3.466660157E-2,6.566801574E-3
2.954334462E0,2.840523422E-2,4.184427112E-2,2.901609987E-3
2.964334462E0,2.718350291E-2,4.795292020E-2,1.679879380E-3
2.974334462E0,2.351831272E-2,4.673119262E-2,1.679879380E-3
2.984334462E0,1.985312067E-2,4.428773001E-2,-7.635815418E-4
2.994334462E0,1.618792862E-2,4.199698567E-2,-1.985311974E-3
3.004334462E0,1.374446787E-2,3.588833287E-2,-1.985311974E-3
3.014334462E0,7.635815535E-3,3.100141138E-2,-1.985311974E-3
3.024334462E0,8.857546374E-3,2.871066704E-2,-1.985311974E-3
3.034334462E0,8.857546374E-3,2.871066704E-2,-3.207042580E-3
3.044334462E0,8.857546374E-3,3.100141138E-2,-7.635815418E-4
3.054334462E0,8.857546374E-3,3.344487399E-2,2.901609987E-3
3.064334462E0,1.007927675E-2,3.344487399E-2,2.901609987E-3
3.074334462E0,6.414085161E-3,2.626720630E-2,4.123340361E-3
3.084334462E0,5.192354787E-3,1.771509275E-2,4.123340361E-3
3.094334462E0,3.970623948E-3,1.298088674E-2,1.679879380E-3
3.104334462E0,-9.162978968E-4,1.175915636E-2,2.901609987E-3
3.114334462E0,3.054326226E-4,1.664607786E-2,2.901609987E-3
3.124334462E0,3.054326226E-4,2.138028294E-2,3.970623948E-3
3.134334462E0,1.527163084E-3,2.382374369E-2,4.581489484E-4
3.144334462E0,2.748893574E-3,2.993239649E-2,1.679879380E-3
3.154334462E0,5.192354787E-3,3.466660157E-2,1.679879380E-3
3.164334462E0,5.345070735E-3,3.711006418E-2,4.581489484E-4
3.174334462E0,6.566801574E-3,4.077525437E-2,-7.635815418E-4
3.184334462E0,7.788531948E-3,4.444044828E-2,4.581489484E-4
3.194334462E0,6.566801574E-3,4.810563847E-2,1.679879380E-3
3.204334462E0,2.901609987E-3,4.444044828E-2,3.054326226E-4
3.214334462E0,2.901609987E-3,4.199698567E-2,3.054326226E-4
3.224334462E0,2.748893574E-3,3.833179548E-2,3.970623948E-3
3.234334462E0,1.679879380E-3,3.833179548E-2,3.970623948E-3
3.244334462E0,3.054326226E-4,3.604105115E-2,5.192354787E-3
3.254334462E0,3.054326226E-4,3.604105115E-2,6.414085161E-3
3.264334462E0,-9.162978968E-4,3.726277873E-2,7.635815535E-3
3.274334462E0,-3.359758761E-3,3.726277873E-2,8.857546374E-3
3.284334462E0,-1.985311974E-3,4.444044828E-2,8.857546374E-3
3.294334462E0,-4.428773187E-3,4.566217586E-2,1.130100712E-2
3.304334462E0,-3.207042580E-3,4.932736978E-2,8.857546374E-3
3.314334462E0,-3.207042580E-3,5.299255997E-2,8.857546374E-3
3.324334462E0,-3.207042580E-3,5.665775016E-2,1.130100712E-2
3.334334462E0,-9.315694682E-3,6.520986557E-2,2.214386500E-2
3.344334462E0,-7.635815418E-4,6.994406879E-2,1.496619824E-2
3.354334462E0,-3.207042580E-3,7.116580009E-2,1.130100712E-2
3.364334462E0,-1.985311974E-3,7.483099401E-2,7.635815535E-3
3.374334462E0,-3.207042580E-3,6.994406879E-2,7.635815535E-3
3.384334462E0,-1.985311974E-3,5.787948146E-2,6.414085161E-3
3.394334462E0,-7.635815418E-4,5.054909736E-2,3.970623948E-3
3.404334462E0,2.901609987E-3,4.810563847E-2,2.748893574E-3
3.414334462E0,4.123340361E-3,4.199698567E-2,3.054326226E-4
3.424334462E0,7.788531948E-3,4.566217586E-2,1.527163084E-3
3.434334462E0,1.374446787E-2,4.550946131E-2,-7.635815418E-4
3.444334462E0,1.267545391E-2,4.444044828E-2,-1.985311974E-3
3.454334462E0,1.267545391E-2,4.199698567E-2,-6.872233935E-3
3.464334462E0,1.496619824E-2,3.833179548E-2,-5.650503561E-3
3.474334462E0,1.511891466E-2,4.077525437E-2,-6.872233935E-3
3.484334462E0,1.511891466E-2,4.306599870E-2,-9.315694682E-3
3.494334462E0,1.878410578E-2,4.184427112E-2,-6.872233935E-3
3.504334462E0,2.000583708E-2,4.062253982E-2,-8.093964309E-3
3.514334462E0,1.863138936E-2,3.344487399E-2,-9.315694682E-3
3.524334462E0,1.985312067E-2,2.733621933E-2,-1.053742506E-2
3.534334462E0,1.740965992E-2,1.771509275E-2,-1.053742506E-2
3.544334462E0,1.618792862E-2,1.404990070E-2,-1.175915636E-2
3.554334462E0,1.252273750E-2,1.038470957E-2,-1.175915636E-2
3.564334462E0,1.007927675E-2,9.162978269E-3,-9.315694682E-3
3.574334462E0,8.857546374E-3,8.093964309E-3,-1.053742506E-2
3.584334462E0,1.130100712E-2,9.162978269E-3,-1.175915636E-2
3.594334462E0,1.007927675E-2,1.282817032E-2,-1.053742506E-2
3.604334462E0,7.635815535E-3,1.038470957E-2,-9.315694682E-3
3.614334462E0,5.192354787E-3,6.872233935E-3,-9.315694682E-3
3.624334462E0,3.970623948E-3,3.207042580E-3,-9.315694682E-3
3.634334462E0,3.054326226E-4,-4.581489484E-4,-6.872233935E-3
3.644334462E0,3.054326226E-4,-4.581489484E-4,-5.650503561E-3
3.654334462E0,-2.138028387E-3,-2.748893574E-3,-4.428773187E-3
3.664334462E0,-4.581489135E-3,-3.970623948E-3,-6.872233935E-3
3.674334462E0,-5.803219974E-3,-1.007927675E-2,-6.872233935E-3
3.684334462E0,-9.162978968E-4,-1.130100712E-2,-5.650503561E-3
3.694334462E0,-2.138028387E-3,-1.130100712E-2,-4.428773187E-3
3.704334462E0,1.527163084E-3,-1.007927675E-2,-3.207042580E-3
3.714334462E0,2.748893574E-3,-7.635815535E-3,-3.207042580E-3
3.724334462E0,3.054326226E-4,-6.414085161E-3,-5.650503561E-3
3.734334462E0,2.748893574E-3,-3.970623948E-3,-5.650503561E-3
3.744334462E0,2.748893574E-3,-5.192354787E-3,-5.650503561E-3
3.754334462E0,1.527163084E-3,-5.192354787E-3,-5.650503561E-3
3.764334462E0,2.748893574E-3,-5.192354787E-3,-6.872233935E-3
3.774334462E0,2.748893574E-3,-7.635815535E-3,-5.650503561E-3
3.784334462E0,1.527163084E-3,-6.414085161E-3,-3.207042580E-3
3.794334462E0,2.748893574E-3,-7.635815535E-3,-1.985311974E-3
3.804334462E0,3.054326226E-4,-1.252273750E-2,-3.207042580E-3
3.814334462E0,-9.162978968E-4,-1.252273750E-2,-7.635815418E-4
3.824334462E0,-3.359758761E-3,-1.007927675E-2,-1.985311974E-3
3.834334462E0,-1.069014193E-3,-1.252273750E-2,4.581489484E-4
3.844334462E0,-2.138028387E-3,-1.007927675E-2,4.581489484E-4
3.854334462E0,-2.138028387E-3,-8.857546374E-3,4.581489484E-4
3.864334462E0,-9.162978968E-4,-6.414085161E-3,4.581489484E-4
3.874334462E0,3.054326226E-4,-6.414085161E-3,-1.985311974E-3
3.884334462E0,-2.138028387E-3,-7.635815535E-3,-7.635815418E-4
3.894334462E0,1.527163084E-3,-6.414085161E-3,4.581489484E-4
3.904334462E0,-9.162978968E-4,-6.414085161E-3,1.679879380E-3
3.914334462E0,1.527163113E-4,-6.414085161E-3,4.123340361E-3
3.924334462E0,1.527163113E-4,-1.007927675E-2,2.901609987E-3
3.934334462E0,-9.162978968E-4,-8.857546374E-3,1.679879380E-3
3.944334462E0,-2.138028387E-3,-6.414085161E-3,1.679879380E-3
3.954334462E0,-3.359758761E-3,-6.414085161E-3,4.123340361E-3
3.964334462E0,-4.581489135E-3,-7.635815535E-3,2.901609987E-3
3.974334462E0,-4.581489135E-3,-7.635815535E-3,1.679879380E-3
3.984334462E0,-3.359758761E-3,-1.007927675E-2,2.901609987E-3
3.994334462E0,-3.359758761E-3,-1.252273750E-2,1.679879380E-3
4.004334462E0,-3.359758761E-3,-1.252273750E-2,4.581489484E-4
4.014334462E0,3.054326226E-4,-1.130100712E-2,-7.635815418E-4
4.024334462E0,2.596177394E-3,-1.007927675E-2,4.581489484E-4
4.034334462E0,2.596177394E-3,-1.007927675E-2,4.581489484E-4
4.044334462E0,3.817907767E-3,-8.857546374E-3,-7.635815418E-4
4.054334462E0,1.527163084E-3,-6.414085161E-3,-1.985311974E-3
4.064334462E0,1.527163084E-3,-6.414085161E-3,-1.985311974E-3
4.074334462E0,3.054326226E-4,-8.857546374E-3,-7.635815418E-4
4.084334462E0,1.527163113E-4,-1.496619824E-2,-3.207042580E-3
4.094334462E0,1.374446787E-3,-1.252273750E-2,-1.985311974E-3
4.104334462E0,3.817907767E-3,-1.374446787E-2,-1.985311974E-3
4.114334462E0,7.483099122E-3,-8.857546374E-3,-3.207042580E-3
4.124334462E0,1.007927675E-2,-2.901609987E-3,-5.650503561E-3
4.134334462E0,8.857546374E-3,7.635815418E-4,-4.428773187E-3
4.144334462E0,8.857546374E-3,3.207042580E-3,-5.650503561E-3
4.154334462E0,8.857546374E-3,6.872233935E-3,-6.872233935E-3
4.164334462E0,5.192354787E-3,3.207042580E-3,-8.093964309E-3
4.174334462E0,5.192354787E-3,1.985311974E-3,-6.872233935E-3
4.184334462E0,6.414085161E-3,-4.581489484E-4,-8.093964309E-3
4.194334462E0,6.414085161E-3,-1.679879380E-3,-8.093964309E-3
4.204334462E0,5.192354787E-3,-2.901609987E-3,-8.093964309E-3
4.214334462E0,7.635815535E-3,-1.679879380E-3,-5.650503561E-3
4.224334462E0,1.130100712E-2,-1.679879380E-3,-4.428773187E-3
4.234334462E0,8.857546374E-3,-4.123340361E-3,-5.650503561E-3
4.244334462E0,6.414085161E-3,-1.007927675E-2,-6.872233935E-3
4.254334462E0,6.414085161E-3,-1.618792862E-2,-8.093964309E-3
4.264334462E0,8.704829961E-3,-1.740965992E-2,-8.093964309E-3
4.274334462E0,8.857546374E-3,-1.374446787E-2,-9.315694682E-3
4.284334462E0,8.857546374E-3,-1.007927675E-2,-8.093964309E-3
4.294334462E0,1.007927675E-2,-1.007927675E-2,-8.093964309E-3
4.304334462E0,1.114829071E-2,-1.023199316E-2,-6.872233935E-3
4.314334462E0,9.926560335E-3,-1.496619824E-2,-8.093964309E-3
4.324334462E0,1.114829071E-2,-1.618792862E-2,-1.053742506E-2
4.334334462E0,1.007927675E-2,-1.374446787E-2,-1.175915636E-2
4.344334462E0,7.635815535E-3,-1.374446787E-2,-1.175915636E-2
4.354334462E0,6.414085161E-3,-1.374446787E-2,-9.315694682E-3
4.364334462E0,7.635815535E-3,-1.130100712E-2,-9.315694682E-3
4.374334462E0,6.414085161E-3,-1.618792862E-2,-1.053742506E-2
4.384334462E0,8.857546374E-3,-1.618792862E-2,-1.175915636E-2
4.394334462E0,1.007927675E-2,-1.496619824E-2,-1.053742506E-2
4.404334462E0,1.007927675E-2,-1.618792862E-2,-1.053742506E-2
4.414334462E0,1.374446787E-2,-1.374446787E-2,-1.160643995E-2
4.424334462E0,1.374446787E-2,-1.145372353E-2,-1.160643995E-2
4.434334462E0,1.496619824E-2,-9.010262787E-3,-1.038470957E-2
4.444334462E0,1.252273750E-2,-6.566801574E-3,-9.315694682E-3
4.454334462E0,1.130100712E-2,-2.901609987E-3,-9.315694682E-3
4.464334462E0,1.007927675E-2,7.635815418E-4,-8.093964309E-3
4.474334462E0,8.857546374E-3,1.985311974E-3,-6.872233935E-3
4.484334462E0,6.414085161E-3,7.635815418E-4,-6.872233935E-3
4.494334462E0,5.192354787E-3,-4.581489484E-4,-8.093964309E-3
4.504334462E0,2.748893574E-3,-1.679879380E-3,-6.872233935E-3
4.514334462E0,3.970623948E-3,-2.901609987E-3,-9.315694682E-3
4.524334462E0,6.414085161E-3,-4.581489484E-4,-8.093964309E-3
4.534334462E0,7.635815535E-3,1.985311974E-3,-1.053742506E-2
4.544334462E0,8.857546374E-3,3.207042580E-3,-8.093964309E-3
4.554334462E0,1.130100712E-2,1.985311974E-3,-9.315694682E-3
4.564334462E0,1.374446787E-2,7.635815418E-4,-8.093964309E-3
4.574334462E0,1.374446787E-2,1.985311974E-3,-6.872233935E-3
4.584334462E0,1.374446787E-2,5.650503561E-3,-8.093964309E-3
4.594334462E0,1.374446787E-2,6.719517522E-3,-8.093964309E-3
4.604334462E0,1.618792862E-2,1.282817032E-2,-1.053742506E-2
4.614334462E0,1.863138936E-2,1.282817032E-2,-1.160643995E-2
4.624334462E0,1.985312067E-2,1.282817032E-2,-1.404990070E-2
4.634334462E0,2.107485011E-2,1.404990070E-2,-1.649336144E-2
4.644334462E0,2.474004216E-2,1.404990070E-2,-1.649336144E-2
4.654334462E0,2.351831272E-2,1.282817032E-2,-1.404990070E-2
4.664334462E0,2.351831272E-2,1.160643995E-2,-1.527163107E-2
4.674334462E0,2.596177347E-2,1.756237634E-2,-1.404990070E-2
4.684334462E0,2.474004216E-2,2.000583708E-2,-1.282817032E-2
4.694334462E0,2.718350291E-2,2.244929783E-2,-1.282817032E-2
4.704334462E0,2.718350291E-2,2.855795063E-2,-1.160643995E-2
4.714334462E0,2.962696366E-2,2.611448988E-2,-1.038470957E-2
4.724334462E0,3.207042441E-2,2.489275858E-2,-1.282817032E-2
4.734334462E0,3.329215571E-2,2.962696366E-2,-1.649336144E-2
4.744334462E0,3.695734590E-2,3.207042441E-2,-1.771509275E-2
4.754334462E0,4.062253982E-2,3.207042441E-2,-1.893682219E-2
4.764334462E0,4.306599870E-2,3.207042441E-2,-2.138028294E-2
4.774334462E0,4.184427112E-2,3.207042441E-2,-1.893682219E-2
4.784334462E0,4.062253982E-2,2.962696366E-2,-1.893682219E-2
4.794334462E0,3.940080851E-2,2.840523422E-2,-2.015855350E-2
4.804334462E0,3.695734590E-2,2.596177347E-2,-1.893682219E-2
4.814334462E0,3.329215571E-2,2.596177347E-2,-2.138028294E-2
4.824334462E0,3.222314268E-2,2.718350291E-2,-2.626720630E-2
4.834334462E0,3.344487399E-2,2.962696366E-2,-2.871066704E-2
4.844334462E0,3.711006418E-2,2.718350291E-2,-3.237585723E-2
4.854334462E0,4.077525437E-2,2.474004216E-2,-3.466660157E-2
4.864334462E0,4.550946131E-2,2.107485011E-2,-3.833179548E-2
4.874334462E0,5.406157300E-2,1.618792862E-2,-4.199698567E-2
4.884334462E0,5.894849449E-2,1.374446787E-2,-4.321871698E-2
4.894334462E0,6.383541971E-2,1.130100712E-2,-4.306599870E-2
4.904334462E0,6.750060618E-2,5.192354787E-3,-4.306599870E-2
4.914334462E0,7.116580009E-2,5.192354787E-3,-4.673119262E-2
4.924334462E0,7.116580009E-2,2.748893574E-3,-4.428773001E-2
4.934334462E0,6.750060618E-2,-9.162978968E-4,-4.673119262E-2
4.944334462E0,6.612616032E-2,-8.093964309E-3,-4.428773001E-2
4.954334462E0,6.490442902E-2,-1.420261711E-2,-4.550946131E-2
4.964334462E0,6.368270516E-2,-1.664607786E-2,-4.550946131E-2
4.974334462E0,6.139195710E-2,-1.664607786E-2,-4.917465150E-2
4.984334462E0,6.261368841E-2,-1.420261711E-2,-5.283984542E-2
4.994334462E0,6.261368841E-2,-1.298088674E-2,-5.283984542E-2
5.004334462E0,6.505715102E-2,-5.650503561E-3,-5.528330430E-2
5.014334462E0,6.750060618E-2,-9.162978968E-4,-5.772676691E-2
5.024334462E0,6.750060618E-2,3.970623948E-3,-6.017022580E-2
5.034334462E0,6.994406879E-2,7.635815535E-3,-6.139195710E-2
5.044334462E0,6.994406879E-2,8.857546374E-3,-6.017022580E-2
5.054334462E0,7.238753140E-2,1.114829071E-2,-6.017022580E-2
5.064334462E0,7.238753140E-2,1.237002108E-2,-5.772676691E-2
5.074334462E0,7.238753140E-2,1.725694351E-2,-6.017022580E-2
5.084334462E0,7.254024595E-2,1.970040426E-2,-6.261368841E-2
5.094334462E0,7.498370856E-2,2.092213556E-2,-6.490442902E-2
5.104334462E0,7.620543987E-2,2.321287990E-2,-6.734789163E-2
5.114334462E0,7.987063378E-2,2.565634064E-2,-7.101308554E-2
5.124334462E0,8.231408894E-2,2.809980139E-2,-7.467827946E-2
5.134334462E0,8.353582025E-2,2.809980139E-2,-7.223481685E-2
5.144334462E0,8.720101416E-2,2.932153270E-2,-7.467827946E-2
5.154334462E0,8.842274547E-2,3.039054573E-2,-7.101308554E-2
5.164334462E0,8.720101416E-2,2.321287990E-2,-7.223481685E-2
5.174334462E0,8.460483700E-2,1.114829071E-2,-7.223481685E-2
5.184334462E0,8.338310570E-2,-1.069014193E-3,-7.345654815E-2
5.194334462E0,8.460483700E-2,-9.468411095E-3,-7.712173462E-2
5.204334462E0,8.704829961E-2,-1.191187184E-2,-7.956519723E-2
5.214334462E0,9.193521738E-2,-1.435533352E-2,-8.185594529E-2
5.224334462E0,9.560041130E-2,-1.450804994E-2,-8.429940045E-2
5.234334462E0,9.926560521E-2,-1.695151068E-2,-8.552113175E-2
5.244334462E0,1.029307917E-1,-2.061670274E-2,-8.918632567E-2
5.254334462E0,1.078177169E-1,-1.939497143E-2,-8.918632567E-2
5.264334462E0,1.102611795E-1,-1.939497143E-2,-9.392052889E-2
5.274334462E0,1.151480973E-1,-1.695151068E-2,-1.000291854E-1
5.284334462E0,1.175915599E-1,-1.343903504E-2,-1.012509167E-1
5.294334462E0,1.200350225E-1,-1.099557430E-2,-1.036943719E-1
5.304334462E0,1.212567538E-1,-9.773843922E-3,-1.061378345E-1
5.314334462E0,1.200350225E-1,-6.108652335E-3,-1.049161032E-1
5.324334462E0,1.175915599E-1,-6.108652335E-3,-1.073595658E-1
5.334334462E0,1.151480973E-1,-7.330383174E-3,-1.061378345E-1
5.344334462E0,1.139263660E-1,-8.552113548E-3,-1.073595658E-1
5.354334462E0,1.151480973E-1,-1.099557430E-2,-1.073595658E-1
5.364334462E0,1.139263660E-1,-1.588249579E-2,-1.098030284E-1
5.374334462E0,1.127046347E-1,-1.466076635E-2,-1.098030284E-1
5.384334462E0,1.104138941E-1,-1.328631863E-2,-1.122464910E-1
5.394334462E0,1.079704314E-1,-7.330383174E-3,-1.134682223E-1
5.404334462E0,1.055269688E-1,-3.665191587E-3,-1.134682223E-1
5.414334462E0,1.043052375E-1,-4.886921961E-3,-1.122464910E-1
5.424334462E0,1.043052375E-1,-4.886921961E-3,-1.146899462E-1
5.434334462E0,1.030835137E-1,-8.399397135E-3,-1.146899462E-1
5.444334462E0,1.043052375E-1,-6.108652335E-3,-1.159116775E-1
5.454334462E0,1.030835137E-1,-8.552113548E-3,-1.159116775E-1
5.464334462E0,1.030835137E-1,-9.621127509E-3,-1.146899462E-1
5.474334462E0,1.006400511E-1,-6.108652335E-3,-1.146899462E-1
5.484334462E0,9.453139454E-2,-5.955935922E-3,-1.136209369E-1
5.494334462E0,9.208793938E-2,-1.206458826E-2,-1.136209369E-1
5.504334462E0,8.964447677E-2,-1.328631863E-2,-1.148426682E-1
5.514334462E0,9.208793938E-2,-1.695151068E-2,-1.160643995E-1
5.524334462E0,9.346238524E-2,-1.572977938E-2,-1.233947799E-1
5.534334462E0,9.712757170E-2,-1.084285788E-2,-1.281289905E-1
5.544334462E0,9.957103431E-2,-4.886921961E-3,-1.305724531E-1
5.554334462E0,9.834930301E-2,-1.221730490E-3,-1.330159009E-1
5.564334462E0,9.239336848E-2,3.665191587E-3,-1.331686229E-1
5.574334462E0,8.872817457E-2,8.552113548E-3,-1.343903542E-1
5.584334462E0,8.750644326E-2,8.552113548E-3,-1.380555481E-1
5.594334462E0,9.117163718E-2,7.330383174E-3,-1.452332139E-1
5.604334462E0,1.033889428E-1,8.399397135E-3,-1.525636017E-1
5.614334462E0,1.192714423E-1,8.246680722E-3,-1.646281779E-1
5.624334462E0,1.351539344E-1,1.191187184E-2,-1.718058437E-1
5.634334462E0,1.571450830E-1,1.404990070E-2,-1.789835095E-1
5.644334462E0,1.765400618E-1,2.000583708E-2,-1.814269722E-1
5.654334462E0,2.021963894E-1,2.474004216E-2,-1.849394590E-1
5.664334462E0,2.193006277E-1,2.825251780E-2,-1.908953935E-1
5.674334462E0,2.412917763E-1,4.016438872E-2,-1.968513280E-1
5.684334462E0,2.583959997E-1,5.833763257E-2,-2.041817009E-1
5.694334462E0,2.693915665E-1,7.391469181E-2,-2.113593817E-1
5.704334462E0,2.780964077E-1,9.926560521E-2,-2.186897546E-1
5.714334462E0,2.782491148E-1,1.284344196E-1,-2.296853364E-1
5.724334462E0,2.832887471E-1,1.525636017E-1,-2.431243658E-1
5.734334462E0,2.871066630E-1,1.562287807E-1,-2.600758672E-1
5.744334462E0,2.932153046E-1,1.415680200E-1,-2.771801054E-1
5.754334462E0,2.932153046E-1,1.101084575E-1,-2.929098904E-1
5.764334462E0,2.796235681E-1,7.498370856E-2,-2.953533530E-1
5.774334462E0,2.600758672E-1,5.451972410E-2,-2.808452845E-1
5.784334462E0,2.232712507E-1,3.665191308E-2,-2.542726696E-1
5.794334462E0,1.805106848E-1,2.489275858E-2,-2.142609805E-1
5.804334462E0,1.279762685E-1,2.641992271E-2,-1.707368344E-1
5.814334462E0,7.803803682E-2,4.489859566E-2,-1.441642046E-1
5.824334462E0,1.481348183E-2,8.903361112E-2,-1.201877370E-1
5.834334462E0,-4.474587739E-2,1.403462887E-1,-9.254608303E-2
5.844334462E0,-8.613199741E-2,1.757764816E-1,-7.819075137E-2
5.854334462E0,-1.333213449E-1,2.148718536E-1,-7.605272532E-2
5.864334462E0,-1.684460938E-1,2.466368377E-1,-8.368854225E-2
5.874334462E0,-1.950187236E-1,2.698497176E-1,-9.972374886E-2
5.884334462E0,-2.119702399E-1,2.784018219E-1,-1.143845171E-1
5.894334462E0,-2.228130996E-1,2.700024247E-1,-1.253800988E-1
5.904334462E0,-2.254092693E-1,2.493857294E-1,-1.302670091E-1
5.914334462E0,-2.133446932E-1,2.092213482E-1,-1.229366288E-1
5.924334462E0,-1.989893466E-1,1.667662114E-1,-1.069014147E-1
5.934334462E0,-1.737911552E-1,1.290452778E-1,-8.231408894E-2
5.944334462E0,-1.472185254E-1,1.023199260E-1,-6.261368841E-2
5.954334462E0,-1.243110746E-1,9.972374886E-2,-5.039638281E-2
5.964334462E0,-9.392052889E-2,1.044579595E-1,-3.558290005E-2
5.974334462E0,-7.208210230E-2,1.116356254E-1,-2.321287990E-2
5.984334462E0,-6.841690838E-2,1.224784851E-1,-1.588249579E-2
5.994334462E0,-6.123924255E-2,1.308778822E-1,-8.552113548E-3
6.004334462E0,-6.230825558E-2,1.394299865E-1,-3.665191587E-3
6.014334462E0,-6.582073122E-2,1.443169117E-1,-5.039638374E-3
6.024334462E0,-7.437284291E-2,1.504255682E-1,-5.039638374E-3
6.034334462E0,-8.536841720E-2,1.516472995E-1,-3.817907767E-3
6.044334462E0,-1.000291854E-1,1.554652005E-1,1.313360315E-2
6.054334462E0,-9.636399150E-2,1.579086632E-1,2.779436857E-2
6.064334462E0,-9.407325089E-2,1.505782902E-1,4.489859566E-2
6.074334462E0,-9.422596544E-2,1.446223408E-1,6.062837690E-2
6.084334462E0,-9.437867999E-2,1.336267740E-1,8.384125680E-2
6.094334462E0,-1.043052375E-1,1.264491081E-1,1.056796908E-1
6.104334462E0,-1.153008118E-1,1.290452778E-1,1.191187203E-1
6.114334462E0,-1.324050426E-1,1.328631938E-1,1.372919679E-1
6.124334462E0,-1.482875347E-1,1.475239545E-1,1.518000066E-1
6.134334462E0,-1.580613852E-1,1.560760736E-1,1.626428664E-1
6.144334462E0,-1.629483104E-1,1.609629989E-1,1.711949855E-1
6.154334462E0,-1.715004146E-1,1.658499092E-1,1.832595766E-1
6.164334462E0,-1.800525337E-1,1.768454909E-1,1.893682331E-1
6.174334462E0,-1.824959964E-1,1.876883507E-1,1.905899495E-1
6.184334462E0,-1.798998117E-1,1.937969923E-1,1.893682331E-1
6.194334462E0,-1.786780804E-1,1.901318133E-1,1.832595766E-1
6.204334462E0,-1.823432744E-1,1.768454909E-1,1.783726513E-1
6.214334462E0,-1.823432744E-1,1.670716405E-1,1.734857261E-1
6.224334462E0,-1.898263693E-1,1.476766765E-1,1.734857261E-1
6.234334462E0,-1.983784884E-1,1.235474944E-1,1.795943826E-1
6.244334462E0,-2.145664245E-1,8.491026610E-2,2.026545405E-1
6.254334462E0,-2.365575731E-1,5.971207842E-2,2.220495194E-1
6.264334462E0,-2.576324046E-1,3.802636266E-2,2.512183189E-1
6.274334462E0,-2.820670307E-1,1.878410578E-2,2.767219543E-1
6.284334462E0,-3.127630055E-1,5.803219974E-3,3.106249869E-1
6.294334462E0,-3.312416673E-1,-7.483099122E-3,3.361285925E-1
6.304334462E0,-3.520110846E-1,-9.773843922E-3,3.555235863E-1
6.314334462E0,-3.555235863E-1,2.306016348E-2,3.614795208E-1
6.324334462E0,-3.335324228E-1,6.658431143E-2,3.640756905E-1
6.334334462E0,-3.237585723E-1,6.643159688E-2,3.518583775E-1
6.344334462E0,-3.732386529E-1,3.756821156E-2,2.675589919E-1
6.354334462E0,-4.027129114E-1,5.451972410E-2,1.443169117E-1
6.364334462E0,-3.526219726E-1,2.871066704E-2,9.468411654E-2
6.374334462E0,-2.266310006E-1,-1.467603743E-1,5.054909736E-2
6.384334462E0,-7.987063378E-2,-3.573561609E-1,-9.315694682E-3
6.394334462E0,2.687807009E-2,-4.830417037E-1,-5.131268129E-2
6.404334462E0,7.406741381E-2,-5.184718966E-1,-4.841107130E-2
6.414334462E0,1.151480973E-1,-5.453499556E-1,-9.162978269E-3
6.424334462E0,1.340849251E-1,-5.780312419E-1,4.825835302E-2
6.434334462E0,1.336267740E-1,-5.913175344E-1,1.140790880E-1
6.444334462E0,1.140790880E-1,-5.681046844E-1,1.565342247E-1
6.454334462E0,8.246681094E-2,-5.022839308E-1,1.977676302E-1
6.464334462E0,6.811147183E-2,-3.895792961E-1,2.194533348E-1
6.474334462E0,8.063421398E-2,-2.768746614E-1,2.180788964E-1
6.484334462E0,1.226311997E-1,-1.317941695E-1,2.157881409E-1
6.494334462E0,1.792889535E-1,-7.330383174E-3,1.806633919E-1
6.504334462E0,2.419026345E-1,7.834346592E-2,1.357648075E-1
6.514334462E0,2.739730477E-1,1.276708394E-1,9.208793938E-2
6.524334462E0,3.196352422E-1,1.527163088E-1,1.053742506E-2
6.534334462E0,3.917173445E-1,1.327104717E-1,-7.299839705E-2
6.544334462E0,4.575380683E-1,8.857546002E-2,-1.189660057E-1
6.554334462E0,4.940372705E-1,5.925392732E-2,-1.492038369E-1
6.564334462E0,5.158756971E-1,-2.748893574E-3,-1.635591686E-1
6.574334462E0,5.313000679E-1,-7.666359097E-2,-1.609629989E-1
6.584334462E0,5.383250117E-1,-9.728029370E-2,-1.340849251E-1
6.594334462E0,5.500841737E-1,-1.301143020E-1,-8.888089657E-2
6.604334462E0,5.705481172E-1,-1.337794960E-1,-4.489859566E-2
6.614334462E0,6.140722632E-1,-1.255328059E-1,-9.315694682E-3
6.624334462E0,6.456845403E-1,-1.183551401E-1,-1.832595794E-3
6.634334462E0,6.885978580E-1,-9.330966324E-2,-3.695734590E-2
6.644334462E0,7.183775306E-1,-1.847867295E-2,-8.445212245E-2
6.654334462E0,7.406741381E-1,6.383541971E-2,-1.148426682E-1
6.664334462E0,7.435756922E-1,1.085812971E-1,-1.441642046E-1
6.674334462E0,7.365507483E-1,1.449277848E-1,-1.820378453E-1
6.684334462E0,7.174612284E-1,1.740965992E-1,-2.125810981E-1
6.694334462E0,6.824892163E-1,2.021963894E-1,-2.444988191E-1
6.704334462E0,6.582072973E-1,2.058615834E-1,-2.568688393E-1
6.714334462E0,6.204863787E-1,1.879937798E-1,-2.533563673E-1
6.724334462E0,5.801692605E-1,1.652390510E-1,-2.499966025E-1
6.734334462E0,5.473352671E-1,1.508837193E-1,-2.403754741E-1
6.744334462E0,5.106833577E-1,1.232420653E-1,-2.344195396E-1
6.754334462E0,4.825835526E-1,1.101084575E-1,-2.138028294E-1
6.764334462E0,4.494441152E-1,9.346238524E-2,-1.933388561E-1
6.774334462E0,4.263839424E-1,8.872817457E-2,-1.837177277E-1
6.784334462E0,3.935499489E-1,8.414668590E-2,-1.887573600E-1
6.794334462E0,3.484986126E-1,7.467827946E-2,-1.937969923E-1
6.804334462E0,3.010038435E-1,6.291911751E-2,-1.904372424E-1
6.814334462E0,2.632829249E-1,5.711590126E-2,-1.895209402E-1
6.824334462E0,2.156354338E-1,2.825251780E-2,-1.823432744E-1
6.834334462E0,1.740965992E-1,-1.389718428E-2,-1.679879427E-1
6.844334462E0,1.472185254E-1,-4.031710699E-2,-1.571450830E-1
6.854334462E0,1.032362282E-1,-4.612032697E-2,-1.366810948E-1
6.864334462E0,7.147123665E-2,-3.497203439E-2,-1.099557430E-1
6.874334462E0,6.536258012E-2,-2.275473066E-2,-9.056077152E-2
6.884334462E0,6.780604273E-2,-1.908953860E-2,-8.078692853E-2
6.894334462E0,7.024950534E-2,-3.252857551E-2,-9.056077152E-2
6.904334462E0,6.047565863E-2,-6.765332818E-2,-1.197295859E-1
6.914334462E0,4.474587739E-2,-1.001819000E-1,-1.514945775E-1
6.924334462E0,4.230241850E-2,-1.195768714E-1,-1.600466967E-1
6.934334462E0,5.070181563E-2,-1.220203340E-1,-1.429424733E-1
6.944334462E0,5.177082866E-2,-1.269072592E-1,-1.087340117E-1
6.954334462E0,4.291328415E-2,-1.401935667E-1,-7.956519723E-2
6.964334462E0,2.076941915E-2,-1.666134894E-1,-4.306599870E-2
6.974334462E0,-2.596177394E-3,-1.893682331E-1,-9.162978269E-3
6.984334462E0,-2.596177347E-2,-2.002110779E-1,7.788531948E-3
6.994334462E0,-4.398229718E-2,-1.757764816E-1,-7.635815418E-4
7.004334462E0,-3.909537569E-2,-1.867720485E-1,-2.397646010E-2
7.014334462E0,7.177666761E-3,-1.470658034E-1,-6.108652451E-4
7.024334462E0,6.108652335E-3,4.459316283E-2,8.689557761E-2
7.034334462E0,-1.252273750E-2,6.658431143E-2,1.672243625E-1
7.044334462E0,-5.665775016E-2,-1.424843222E-1,3.061962128E-1
7.054334462E0,-1.324050426E-1,-4.109596014E-1,3.901901841E-1
7.064334462E0,-1.658499092E-1,-6.010913849E-1,3.620903790E-1
7.074334462E0,-1.841758788E-1,-6.858489513E-1,3.255911767E-1
7.084334462E0,-1.815796942E-1,-7.223481536E-1,2.683225572E-1
7.094334462E0,-1.408044398E-1,-6.827946305E-1,2.015855312E-1
7.104334462E0,-7.941248268E-2,-6.032294035E-1,1.359175146E-1
7.114334462E0,3.115412779E-2,-4.440990388E-1,6.444628537E-2
7.124334462E0,1.455386430E-1,-2.655736506E-1,-2.397646010E-2
7.134334462E0,2.037235647E-1,-1.400408596E-1,-1.151480973E-1
7.144334462E0,1.921171248E-1,-7.086037099E-2,-1.666134894E-1
7.154334462E0,1.438587606E-1,-2.458732575E-2,-1.899790913E-1
7.164334462E0,6.841690838E-2,1.588249579E-2,-1.734857261E-1
7.174334462E0,-2.641992271E-2,7.360926270E-2,-1.252273768E-1
7.184334462E0,-9.346238524E-2,1.140790880E-1,-7.696902007E-2
7.194334462E0,-1.569923609E-1,1.253800988E-1,-2.489275858E-2
7.204334462E0,-2.096794993E-1,1.307251602E-1,3.207042441E-2
7.214334462E0,-2.438879460E-1,1.563815027E-1,7.452555746E-2
7.224334462E0,-2.645046413E-1,1.966986060E-1,1.072068512E-1
7.234334462E0,-3.045163155E-1,1.992947906E-1,9.361509979E-2
7.244334462E0,-3.591887653E-1,1.365283877E-1,3.115412779E-2
7.254334462E0,-4.198171496E-1,6.658431143E-2,-3.726277873E-2
7.264334462E0,-4.937318265E-1,-3.359758761E-3,-1.143845171E-1
7.274334462E0,-5.545129180E-1,-3.940080851E-2,-1.403462887E-1
7.284334462E0,-5.994115472E-1,-1.527163084E-3,-1.369865239E-1
7.294334462E0,-6.233879924E-1,8.216137439E-2,-1.444696337E-1
7.304334462E0,-6.314819455E-1,1.889100820E-1,-1.409571618E-1
7.314334462E0,-6.072000265E-1,2.385428846E-1,-9.468411654E-2
7.324334462E0,-5.745187402E-1,2.808452845E-1,-4.948008433E-2
7.334334462E0,-5.247332454E-1,3.350595832E-1,-9.010262787E-3
7.344334462E0,-4.616613984E-1,3.637702465E-1,2.550362423E-2
7.354334462E0,-3.863722682E-1,3.718642294E-1,6.612616032E-2
7.364334462E0,-3.185662329E-1,3.556762934E-1,8.842274547E-2
7.374334462E0,-2.409863323E-1,3.225368559E-1,1.023199260E-1
7.384334462E0,-1.693623960E-1,2.771801054E-1,1.039998084E-1
7.394334462E0,-1.125519201E-1,2.029599845E-1,1.056796908E-1
7.404334462E0,-7.391469181E-2,1.444696337E-1,1.107193232E-1
7.414334462E0,-2.306016348E-2,7.269296050E-2,1.172861308E-1
7.424334462E0,2.168571576E-2,2.275473066E-2,1.237002090E-1
7.434334462E0,4.581489414E-2,-2.901609987E-3,1.371392459E-1
7.444334462E0,6.032294407E-2,-4.123340361E-3,1.409571618E-1
7.454334462E0,7.620543987E-2,2.718350291E-2,1.519527286E-1
7.464334462E0,1.043052375E-1,7.681630552E-2,1.667662114E-1
7.474334462E0,1.324050426E-1,1.226311997E-1,1.777617931E-1
7.484334462E0,1.388191283E-1,2.038762718E-1,1.802052408E-1
7.494334462E0,1.171334088E-1,2.863430977E-1,1.774563491E-1
7.504334462E0,7.971791178E-2,3.326161206E-1,1.736384481E-1
7.514334462E0,3.466660157E-2,3.329215646E-1,1.721112877E-1
7.524334462E0,-2.871066704E-2,2.897028327E-1,1.779145002E-1
7.534334462E0,-1.032362282E-1,2.151772827E-1,1.860084683E-1
7.544334462E0,-1.840231568E-1,1.149953827E-1,1.979203373E-1
7.554334462E0,-2.426662147E-1,2.703078650E-2,2.086104751E-1
7.564334462E0,-3.174972236E-1,-9.010262042E-2,2.254092693E-1
7.574334462E0,-3.520110846E-1,-1.928807050E-1,2.315179259E-1
7.584334462E0,-3.704897761E-1,-2.521346211E-1,2.460259795E-1
7.594334462E0,-3.608686328E-1,-2.521346211E-1,2.631302178E-1
7.604334462E0,-3.013092875E-1,-2.136501223E-1,2.952006161E-1
7.614334462E0,-3.106249869E-1,-9.010262042E-2,2.875648141E-1
7.624334462E0,-3.565925956E-1,9.789115191E-2,1.896736622E-1
7.634334462E0,-3.758348525E-1,2.638937831E-1,6.383541971E-2
7.644334462E0,-3.234531581E-1,1.641700417E-1,-1.130100712E-2
7.654334462E0,-1.950187236E-1,-7.437284291E-2,-1.029307917E-1
7.664334462E0,-7.834346592E-2,-2.280054539E-1,-1.812742651E-1
7.674334462E0,4.444044828E-2,-3.585779071E-1,-2.657263875E-1
7.684334462E0,1.354593635E-1,-4.500549734E-1,-2.809980214E-1
7.694334462E0,1.666134894E-1,-5.218316317E-1,-2.660318017E-1
7.704334462E0,1.762346178E-1,-5.618433356E-1,-2.587014437E-1
7.714334462E0,1.844813079E-1,-5.593998432E-1,-2.208277881E-1
7.724334462E0,1.855503172E-1,-4.816672504E-1,-1.490511149E-1
7.734334462E0,1.867720485E-1,-3.798054755E-1,-7.971791178E-2
7.744334462E0,1.805106848E-1,-2.232712507E-1,3.344487399E-2
7.754334462E0,1.724167168E-1,-7.330383174E-3,1.136209369E-1
7.764334462E0,1.850921661E-1,2.254092693E-1,1.595885456E-1
7.774334462E0,2.185370475E-1,3.802636266E-1,1.730275750E-1
7.784334462E0,2.628247738E-1,5.181664228E-1,1.780672222E-1
7.794334462E0,2.790127099E-1,5.688682795E-1,1.354593635E-1
7.804334462E0,2.768746614E-1,5.531384945E-1,8.552113175E-2
7.814334462E0,2.649627924E-1,5.203045011E-1,3.787364438E-2
7.824334462E0,2.515237629E-1,4.718934000E-1,-4.734205548E-3
7.834334462E0,2.345722616E-1,4.404338300E-1,-2.794708498E-2
7.844334462E0,2.235766798E-1,4.163046777E-1,-3.772092983E-2
7.854334462E0,2.405281961E-1,3.579670191E-1,-4.734205827E-2
7.864334462E0,2.753475010E-1,2.596177161E-1,-5.436700583E-2
7.874334462E0,3.309362531E-1,1.525636017E-1,-4.657847434E-2
7.884334462E0,3.791945875E-1,9.178250283E-2,-2.306016348E-2
7.894334462E0,4.346306324E-1,3.680463135E-2,1.145372353E-2
7.904334462E0,4.830417037E-1,1.359175146E-2,4.092797264E-2
7.914334462E0,4.987714589E-1,8.704829961E-3,4.841107130E-2
7.924334462E0,4.940372705E-1,2.199114859E-2,3.375030309E-2
7.934334462E0,4.725042582E-1,5.360342562E-2,3.054326167E-3
7.944334462E0,4.375322461E-1,9.987647086E-2,-2.886338346E-2
7.954334462E0,3.988949955E-1,1.388191283E-1,-5.345070735E-2
7.964334462E0,3.410155177E-1,1.852448881E-1,-8.674286306E-2
7.974334462E0,2.719877362E-1,2.292271852E-1,-1.128573567E-1
7.984334462E0,2.029599845E-1,2.525927722E-1,-1.351539344E-1
7.994334462E0,1.458440721E-1,2.481640130E-1,-1.513418704E-1
8.004334462E0,7.651086897E-2,2.086104751E-1,-1.724167168E-1
8.014334462E0,2.290744707E-2,1.531744599E-1,-1.798998117E-1
8.024334462E0,-1.756237634E-2,9.773843735E-2,-1.812742651E-1
8.034334462E0,-3.833179548E-2,5.299255997E-2,-1.802052408E-1
8.044334462E0,-5.314527452E-2,2.138028387E-3,-1.802052408E-1
8.054334462E0,-6.047565863E-2,-2.321287990E-2,-1.814269722E-1
8.064334462E0,-6.536258012E-2,-2.321287990E-2,-1.838704348E-1
8.074334462E0,-5.436700583E-2,-1.603521220E-2,-1.863138974E-1
8.084334462E0,-3.252857551E-2,-7.635815535E-3,-1.873829067E-1
8.094334462E0,-1.924225502E-2,-2.962696366E-2,-1.762346178E-1
8.104334462E0,-1.954768784E-2,-7.070764899E-2,-1.518000066E-1
8.114334462E0,-2.611448988E-2,-1.203404516E-1,-9.697485715E-2
8.124334462E0,-2.306016348E-2,-1.371392459E-1,-1.160643995E-2
8.134334462E0,-1.389718428E-2,-1.624901593E-1,6.643159688E-2
8.144334462E0,-1.695151068E-2,-2.302961946E-1,1.079704314E-1
8.154334462E0,-3.222314268E-2,-3.659082949E-1,1.372919679E-1
8.164334462E0,-4.016438872E-2,-5.247332454E-1,1.470658034E-1
8.174334462E0,-3.573561832E-2,-6.411030889E-1,1.327104717E-1
8.184334462E0,-1.970040426E-2,-6.630942225E-1,1.010981947E-1
8.194334462E0,6.841690838E-2,-6.467535496E-1,1.740965992E-2
8.204334462E0,2.277000248E-1,-4.334088862E-1,-4.764748737E-2
8.214334462E0,3.225368559E-1,-1.249219403E-1,-5.360342562E-2
8.224334462E0,3.924809098E-1,8.796459436E-2,-9.621127509E-3
8.234334462E0,3.767511547E-1,-5.115996301E-2,6.719517708E-2
8.244334462E0,2.770273983E-1,-3.243694305E-1,1.108720452E-1
8.254334462E0,1.789835095E-1,-4.799873531E-1,1.336267740E-1
8.264334462E0,8.979719132E-2,-5.169447064E-1,1.710422635E-1
8.274334462E0,7.895433158E-2,-4.356996417E-1,2.049452960E-1
8.284334462E0,1.241583601E-1,-3.268128932E-1,2.342668176E-1
8.294334462E0,1.609629989E-1,-2.542726696E-1,2.405281961E-1
8.304334462E0,1.942551434E-1,-1.661553532E-1,2.101376504E-1
8.314334462E0,2.047925740E-1,-7.055493444E-2,1.479821056E-1
8.324334462E0,1.823432744E-1,-2.687807009E-2,6.490442902E-2
8.334334462E0,1.377501190E-1,-1.450804994E-2,-1.221730490E-3
8.344334462E0,4.703662544E-2,-6.872233935E-3,-7.238753140E-2
8.354334462E0,-4.245513305E-2,1.664607786E-2,-1.240056455E-1
8.364334462E0,-8.964447677E-2,5.207626149E-2,-1.475239545E-1
8.374334462E0,-1.305724531E-1,1.178969890E-1,-1.600466967E-1
8.384334462E0,-1.620320082E-1,2.150245607E-1,-1.444696337E-1
8.394334462E0,-1.786780804E-1,3.158173263E-1,-1.215621829E-1
8.404334462E0,-1.968513280E-1,3.643811047E-1,-1.180497110E-1
8.414334462E0,-2.394591719E-1,3.524692357E-1,-1.218676195E-1
8.424334462E0,-3.028364480E-1,2.790127099E-1,-1.307251602E-1
8.434334462E0,-3.711006343E-1,2.163990140E-1,-1.444696337E-1
8.444334462E0,-4.199698567E-1,1.899790913E-1,-1.397354305E-1
8.454334462E0,-4.628831446E-1,1.430951804E-1,-1.033889428E-1
8.464334462E0,-4.973970354E-1,8.994990587E-2,-6.582073122E-2
8.474334462E0,-5.120577812E-1,8.888089657E-2,-5.849034712E-2
8.484334462E0,-5.080871582E-1,1.409571618E-1,-6.352998316E-2
8.494334462E0,-4.834998548E-1,2.075414658E-1,-6.704246253E-2
8.504334462E0,-4.531092942E-1,2.449569702E-1,-3.772092983E-2
8.514334462E0,-4.253149331E-1,2.678644061E-1,-2.290744567E-3
8.524334462E0,-3.877467215E-1,2.942843437E-1,3.451388702E-2
8.534334462E0,-3.416263759E-1,3.158173263E-1,5.910121277E-2
8.544334462E0,-2.834414840E-1,3.167336285E-1,9.972374886E-2
8.554334462E0,-2.386955917E-1,3.116939962E-1,1.218676195E-1
8.564334462E0,-1.841758788E-1,2.591595948E-1,1.343903542E-1
8.574334462E0,-1.420261711E-1,1.802052408E-1,1.444696337E-1
8.584334462E0,-9.972374886E-2,1.108720452E-1,1.435533315E-1
8.594334462E0,-4.520402849E-2,4.505131021E-2,1.415680200E-1
8.604334462E0,7.635815418E-4,-1.527163113E-4,1.492038369E-1
8.614334462E0,3.100141138E-2,-2.092213556E-2,1.615738571E-1
8.624334462E0,4.428773001E-2,-1.847867295E-2,1.786780804E-1
8.634334462E0,6.627888232E-2,2.138028294E-2,1.860084683E-1
8.644334462E0,8.475755155E-2,7.696902007E-2,1.934915632E-1
8.654334462E0,9.101892263E-2,1.533271819E-1,1.970040351E-1
8.664334462E0,9.743300825E-2,2.054034323E-1,1.823432744E-1
8.674334462E0,1.073595658E-1,2.379320115E-1,1.556179225E-1
8.684334462E0,1.174388453E-1,2.050980031E-1,1.007927656E-1
8.694334462E0,1.223257631E-1,1.165225431E-1,2.428189293E-2
8.704334462E0,1.186605766E-1,1.466076635E-2,-2.565634064E-2
8.714334462E0,8.918632567E-2,-1.246165112E-1,-6.215553731E-2
8.724334462E0,3.375030309E-2,-2.733621895E-1,-5.986479297E-2
8.734334462E0,-1.786780916E-2,-3.845396638E-1,-2.962696366E-2
8.744334462E0,-9.407325089E-2,-4.856378734E-1,4.199698567E-2
8.754334462E0,-1.687515229E-1,-4.996877611E-1,1.171334088E-1
8.764334462E0,-2.127338201E-1,-3.901901841E-1,2.179261744E-1
8.774334462E0,-2.422080636E-1,-3.145956099E-1,3.005456924E-1
8.784334462E0,-3.594942093E-1,-1.284344196E-1,3.045163155E-1
8.794334462E0,-4.627304375E-1,1.290452778E-1,2.561052442E-1
8.804334462E0,-4.754058719E-1,2.186897546E-1,1.913535446E-1
8.814334462E0,-4.169155359E-1,1.067487001E-1,1.223257631E-1
8.824334462E0,-2.638937831E-1,-1.186605766E-1,2.748893574E-3
8.834334462E0,-1.556179225E-1,-3.133738637E-1,-1.194241568E-1
8.844334462E0,-1.360702366E-1,-4.263839424E-1,-1.971567571E-1
8.854334462E0,-1.177442744E-1,-5.247332454E-1,-2.797762752E-1
8.864334462E0,-5.314527452E-2,-5.506950021E-1,-3.294090927E-1
8.874334462E0,3.726277873E-2,-4.786129296E-1,-3.362813294E-1
8.884334462E0,1.151480973E-1,-4.088215530E-1,-3.139847219E-1
8.894334462E0,2.038762718E-1,-3.390302062E-1,-2.672535479E-1
8.904334462E0,2.730567753E-1,-2.641992271E-1,-1.937969923E-1
8.914334462E0,3.214678466E-1,-1.443169117E-1,-8.765916526E-2
8.924334462E0,3.469714522E-1,-1.221730467E-2,-6.108652335E-3
8.934334462E0,3.897320330E-1,1.438587606E-1,6.230825558E-2
8.944334462E0,3.984368443E-1,2.614503205E-1,1.035416573E-1
8.954334462E0,3.741549551E-1,3.234531581E-1,1.435533315E-1
8.964334462E0,3.558290005E-1,3.442225754E-1,1.776090711E-1
8.974334462E0,3.287982047E-1,2.875648141E-1,1.860084683E-1
8.984334462E0,3.139847219E-1,1.918116808E-1,1.629483104E-1
8.994334462E0,3.103195429E-1,1.456913650E-1,1.178969890E-1
9.004334462E0,3.178026378E-1,7.773260027E-2,4.612032697E-2
9.014334462E0,3.617849350E-1,3.375030309E-2,-1.572977938E-2
9.024334462E0,4.276056588E-1,2.901609987E-3,-5.925392732E-2
9.034334462E0,4.801400900E-1,9.773843922E-3,-9.422596544E-2
9.044334462E0,5.485569835E-1,3.115412779E-2,-1.220203340E-1
9.054334462E0,6.143777370E-1,4.153883830E-2,-1.301143020E-1
9.064334462E0,6.546948552E-1,6.185010448E-2,-1.566869318E-1
9.074334462E0,6.682865620E-1,7.391469181E-2,-1.750128865E-1
9.084334462E0,6.563746929E-1,1.055269688E-1,-1.994474977E-1
9.094334462E0,6.102544069E-1,1.372919679E-1,-2.119702399E-1
9.104334462E0,5.519167781E-1,1.449277848E-1,-2.086104751E-1
9.114334462E0,4.595233798E-1,1.382082552E-1,-1.980730593E-1
9.124334462E0,3.523165286E-1,1.207986027E-1,-1.792889535E-1
9.134334462E0,2.463314086E-1,9.972374886E-2,-1.615738571E-1
9.144334462E0,1.646281779E-1,6.750060618E-2,-1.594358236E-1
9.154334462E0,7.330382615E-2,1.114829071E-2,-1.623374373E-1
9.164334462E0,-7.177666761E-3,-3.573561832E-2,-1.701259762E-1
9.174334462E0,-7.162395120E-2,-5.711590126E-2,-1.850921661E-1
9.184334462E0,-1.104138941E-1,-5.451972410E-2,-2.023491114E-1
9.194334462E0,-1.307251602E-1,-2.657263726E-2,-2.341141105E-1
9.204334462E0,-1.314887404E-1,4.138612002E-2,-2.719877362E-1
9.214334462E0,-1.285871267E-1,1.104138941E-1,-2.988658249E-1
9.224334462E0,-1.232420653E-1,1.927279830E-1,-3.208569586E-1
9.234334462E0,-1.062905490E-1,2.507601976E-1,-2.745839357E-1
9.244334462E0,-8.735372871E-2,2.180788964E-1,-2.220495194E-1
9.254334462E0,-7.574728876E-2,1.550070494E-1,-1.707368344E-1
9.264334462E0,-4.245513305E-2,7.131851465E-2,-9.605856240E-2
9.274334462E0,7.941247895E-3,-3.069597855E-2,-5.054909736E-2
9.284334462E0,7.299839705E-2,-1.620320082E-1,-3.909537569E-2
9.294334462E0,1.308778822E-1,-2.872593701E-1,-3.863722831E-2
9.304334462E0,2.107485086E-1,-4.332561791E-1,-6.230825558E-2
9.314334462E0,2.933680415E-1,-5.429064631E-1,-1.056796908E-1
9.324334462E0,3.604104817E-1,-5.603161454E-1,-1.539380401E-1
9.334334462E0,3.935499489E-1,-5.448917747E-1,-2.049452960E-1
9.344334462E0,4.720461071E-1,-5.213735104E-1,-2.910772860E-1
9.354334462E0,5.899431109E-1,-2.724458873E-1,-3.211624026E-1
9.364334462E0,6.015495658E-1,2.580905706E-2,-2.448042482E-1
9.374334462E0,5.535966158E-1,1.232420653E-1,-8.674286306E-2
9.384334462E0,3.949243724E-1,-8.750644326E-2,7.834346592E-2
9.394334462E0,2.098322064E-1,-3.310889602E-1,1.605048478E-1
9.404334462E0,8.124507964E-2,-4.428772926E-1,2.269364446E-1
9.414334462E0,-2.764165215E-2,-4.529565871E-1,3.190243840E-1
9.424334462E0,-6.307183951E-2,-4.065308273E-1,3.967569768E-1
9.434334462E0,-7.910704613E-2,-3.810271919E-1,4.306600094E-1
9.444334462E0,-1.104138941E-1,-3.323107064E-1,4.207334518E-1
9.454334462E0,-1.459967941E-1,-2.304489166E-1,3.460551500E-1
9.464334462E0,-1.656972021E-1,-1.406517178E-1,2.409863323E-1
9.474334462E0,-1.795943826E-1,-7.773260027E-2,1.519527286E-1
9.484334462E0,-1.944078654E-1,-8.704829961E-3,3.726277873E-2
9.494334462E0,-2.093740702E-1,4.810563847E-2,-6.658431143E-2
9.504334462E0,-2.318233550E-1,9.422596544E-2,-1.423316002E-1
9.514334462E0,-2.435825169E-1,1.123992056E-1,-1.873829067E-1
9.524334462E0,-2.506074607E-1,1.317941695E-1,-2.228130996E-1
9.534334462E0,-2.661845386E-1,1.768454909E-1,-2.241875380E-1
9.544334462E0,-3.037527502E-1,2.461786866E-1,-2.000583708E-1
9.554334462E0,-3.439171314E-1,2.718350291E-1,-1.748601794E-1
9.564334462E0,-4.050036669E-1,2.408336252E-1,-1.592831165E-1
9.574334462E0,-4.807509482E-1,1.467603743E-1,-1.510364264E-1
9.584334462E0,-5.664247870E-1,5.879577994E-2,-1.319468915E-1
9.594334462E0,-6.116288304E-1,3.130684420E-2,-1.017090604E-1
9.604334462E0,-6.533203721E-1,4.505131021E-2,-4.825835302E-2
9.614334462E0,-6.728680730E-1,7.666359097E-2,-1.069014147E-2
9.624334462E0,-6.838636398E-1,1.009454802E-1,7.483099122E-3
9.634334462E0,-6.727153659E-1,1.470658034E-1,8.704829961E-3
9.644334462E0,-6.432411075E-1,2.183843255E-1,1.863138936E-2
9.654334462E0,-5.969680548E-1,2.858849466E-1,3.817907721E-2
9.664334462E0,-5.506950021E-1,3.184134960E-1,4.948008433E-2
9.674334462E0,-4.813618064E-1,3.397938013E-1,5.711590126E-2
9.684334462E0,-4.146247804E-1,3.503312171E-1,9.040805697E-2
9.694334462E0,-3.384193480E-1,3.474296033E-1,1.469130963E-1
9.704334462E0,-2.776382565E-1,3.422372639E-1,1.643227488E-1
9.714334462E0,-2.023491114E-1,3.187189400E-1,1.476766765E-1
9.724334462E0,-1.478293836E-1,2.565633953E-1,1.383609772E-1
9.734334462E0,-1.163698286E-1,2.006692290E-1,1.495092660E-1
9.744334462E0,-8.994990587E-2,1.531744599E-1,1.594358236E-1
9.754334462E0,-6.215553731E-2,1.421788931E-1,1.815796942E-1
9.764334462E0,-3.787364438E-2,1.710422635E-1,2.072360367E-1
9.774334462E0,-1.374446787E-3,2.072360367E-1,2.281581759E-1
9.784334462E0,6.673702598E-2,2.516764700E-1,2.480112910E-1
9.794334462E0,1.217148975E-1,3.071125150E-1,2.420553565E-1
9.804334462E0,1.453859210E-1,3.784310222E-1,2.104430795E-1
9.814334462E0,1.504255682E-1,4.182899892E-1,1.873829067E-1
9.824334462E0,1.519527286E-1,4.254676402E-1,1.543961912E-1
9.834334462E0,1.278235465E-1,3.831652105E-1,1.067487001E-1
9.844334462E0,8.994990587E-2,3.046690524E-1,7.254024595E-2
9.854334462E0,2.138028294E-2,1.595885456E-1,5.406157300E-2
9.864334462E0,-5.222897977E-2,-8.399397135E-3,5.879577994E-2
9.874334462E0,-1.125519201E-1,-1.751656085E-1,8.659014851E-2
9.884334462E0,-1.534798890E-1,-2.887865305E-1,1.243110746E-1
9.894334462E0,-2.087631971E-1,-3.683517575E-1,1.704314053E-1
9.904334462E0,-2.432770878E-1,-3.437644243E-1,2.579378486E-1
9.914334462E0,-1.861611903E-1,-2.338086665E-1,3.361285925E-1
9.924334462E0,-1.690569520E-1,-1.272126883E-1,3.860668242E-1
9.934334462E0,-3.162754774E-1,6.398813426E-2,3.326161206E-1
9.944334462E0,-4.682282209E-1,2.054034323E-1,2.035708427E-1
9.954334462E0,-5.033529401E-1,1.145372316E-1,1.389718503E-1
9.964334462E0,-4.331034720E-1,-3.863722831E-2,9.315694869E-2
9.974334462E0,-2.932153046E-1,-1.754710376E-1,3.054326226E-4
9.984334462E0,-1.847867370E-1,-2.695443034E-1,-1.026253626E-1
9.994334462E0,-1.421788931E-1,-3.620903790E-1,-1.643227488E-1
1.000433446E1,-1.423316002E-1,-4.833471179E-1,-2.189951837E-1
1.001433446E1,-1.182024255E-1,-5.635231733E-1,-2.455678284E-1
1.002433446E1,-7.070764899E-2,-5.346598029E-1,-2.270891517E-1
1.003433446E1,-2.565634064E-2,-4.598288238E-1,-1.806633919E-1
1.004433446E1,2.290744707E-2,-3.533855379E-1,-1.146899462E-1
1.005433446E1,6.414084882E-2,-2.674062550E-1,-3.054326214E-2
1.006433446E1,9.193521738E-2,-1.510364264E-1,5.971207842E-2
1.007433446E1,1.262963861E-1,-7.024950348E-3,1.047633886E-1
1.008433446E1,1.840231568E-1,1.817324162E-1,1.159116775E-1
1.009433446E1,2.260201424E-1,3.207042515E-1,9.773843735E-2
1.010433446E1,2.313652188E-1,3.885102868E-1,8.307767659E-2
1.011433446E1,2.168571651E-1,4.117231667E-1,6.215553731E-2
1.012433446E1,1.985312104E-1,3.802636266E-1,6.826419383E-2
1.013433446E1,1.750128865E-1,3.003929853E-1,8.521570265E-2
1.014433446E1,1.624901593E-1,2.339613885E-1,9.132435173E-2
1.015433446E1,1.487456858E-1,1.588249654E-1,1.010981947E-1
1.016433446E1,1.765400618E-1,8.964447677E-2,1.026253626E-1
1.017433446E1,2.383901626E-1,2.367102914E-2,9.315694869E-2
1.018433446E1,3.112358451E-1,-5.803219974E-3,8.765916526E-2
1.019433446E1,4.024074674E-1,-3.970623948E-3,9.544769675E-2
1.020433446E1,4.911356568E-1,6.414085161E-3,1.044579595E-1
1.021433446E1,5.337435007E-1,4.886921961E-3,9.498954564E-2
1.022433446E1,5.485569835E-1,1.679879427E-2,5.360342562E-2
1.023433446E1,5.331326723E-1,4.596760869E-2,1.802052557E-2
1.024433446E1,4.981606007E-1,8.735372871E-2,-5.345070735E-3
1.025433446E1,4.570799172E-1,1.142318025E-1,-2.138028294E-2
1.026433446E1,3.929390609E-1,1.498146951E-1,-4.367686436E-2
1.027433446E1,3.190243840E-1,1.841758788E-1,-7.345654815E-2
1.028433446E1,2.499966025E-1,2.160935849E-1,-1.043052375E-1
1.029433446E1,2.040289938E-1,2.176207453E-1,-1.253800988E-1
1.030433446E1,1.492038369E-1,1.803579628E-1,-1.536326110E-1
1.031433446E1,1.017090604E-1,1.259909570E-1,-1.708895564E-1
1.032433446E1,6.276640296E-2,7.528914511E-2,-1.844813079E-1
1.033433446E1,3.833179548E-2,4.398229718E-2,-1.905899495E-1
1.034433446E1,1.511891466E-2,1.267545391E-2,-2.054034323E-1
1.035433446E1,3.054326167E-3,-4.276056774E-3,-2.188424766E-1
1.036433446E1,-2.901609987E-3,6.108652451E-4,-2.273945808E-1
1.037433446E1,-1.130100712E-2,3.084869497E-2,-2.322815061E-1
1.038433446E1,-1.725694351E-2,6.368270516E-2,-2.373211533E-1
1.039433446E1,-2.687807009E-2,7.223481685E-2,-2.373211533E-1
1.040433446E1,-3.680463135E-2,4.810563847E-2,-2.287690341E-1
1.041433446E1,-3.359758854E-2,-1.374446787E-2,-1.994474977E-1
1.042433446E1,-3.817907767E-3,-6.719517708E-2,-1.298088580E-1
1.043433446E1,3.558290005E-2,-1.036943719E-1,-3.817907721E-2
1.044433446E1,6.185010448E-2,-1.569923609E-1,7.177666761E-3
1.045433446E1,9.529497474E-2,-2.906191349E-1,1.970040426E-2
1.046433446E1,1.240056455E-1,-4.447098970E-1,4.123340361E-3
1.047433446E1,1.481348276E-1,-5.224425197E-1,-2.244929783E-2
1.048433446E1,1.930334121E-1,-6.162103415E-1,-7.192938030E-2
1.049433446E1,3.176499307E-1,-5.661193728E-1,-1.261436790E-1
1.050433446E1,4.295909703E-1,-2.153300047E-1,-1.137736514E-1
1.051433446E1,4.908302128E-1,-1.450804994E-2,-4.902193695E-2
1.052433446E1,5.115996599E-1,-1.368338168E-1,5.833763257E-2
1.053433446E1,4.176791012E-1,-4.233296216E-1,1.154535338E-1
1.054433446E1,2.964223623E-1,-5.836817622E-1,1.576032341E-1
1.055433446E1,2.403754741E-1,-5.615378618E-1,1.841758788E-1
1.056433446E1,2.357939780E-1,-4.488332272E-1,2.009746730E-1
1.057433446E1,2.483167201E-1,-3.530801237E-1,1.985312104E-1
1.058433446E1,2.296853364E-1,-2.269364446E-1,1.666134894E-1
1.059433446E1,2.183843255E-1,-9.850201756E-2,9.575312585E-2
1.060433446E1,1.977676302E-1,2.626720630E-2,-1.908953860E-2
1.061433446E1,1.510364264E-1,7.009678334E-2,-1.035416573E-1
1.062433446E1,8.307767659E-2,6.673702598E-2,-1.441642046E-1
1.063433446E1,-1.282817032E-2,6.246097013E-2,-1.702786833E-1
1.064433446E1,-8.567385375E-2,7.269296050E-2,-1.815796942E-1
1.065433446E1,-1.256855279E-1,8.872817457E-2,-1.928807050E-1
1.066433446E1,-1.389718503E-1,1.275181174E-1,-1.808161139E-1
1.067433446E1,-1.678352207E-1,2.307543457E-1,-1.579086632E-1
1.068433446E1,-1.966986060E-1,3.546072841E-1,-1.386664063E-1
1.069433446E1,-2.451096773E-1,3.985895813E-1,-1.389718503E-1
1.070433446E1,-2.987131178E-1,3.686571717E-1,-1.417207420E-1
1.071433446E1,-3.805690408E-1,2.964223623E-1,-1.456913650E-1
1.072433446E1,-4.624249935E-1,2.229658216E-1,-1.327104717E-1
1.073433446E1,-5.174028873E-1,1.640173197E-1,-1.269072592E-1
1.074433446E1,-5.615378618E-1,1.061378345E-1,-9.896016866E-2
1.075433446E1,-5.836817622E-1,9.666942805E-2,-4.795292020E-2
1.076433446E1,-5.766568184E-1,1.391245574E-1,4.428773187E-3
1.077433446E1,-5.691736937E-1,1.814269722E-1,-5.345070735E-3
1.078433446E1,-5.262604356E-1,2.321287990E-1,-1.603521220E-2
1.079433446E1,-4.654793143E-1,2.596177161E-1,7.330383174E-3
1.080433446E1,-3.999640048E-1,2.895501256E-1,3.817907721E-2
1.081433446E1,-3.500257730E-1,3.304781020E-1,6.643159688E-2
1.082433446E1,-2.916881442E-1,3.883575797E-1,9.834930301E-2
1.083433446E1,-2.260201424E-1,4.134030640E-1,1.157589629E-1
1.084433446E1,-1.763873398E-1,3.875939846E-1,1.270599663E-1
1.085433446E1,-1.291979998E-1,3.255911767E-1,1.395827085E-1
1.086433446E1,-8.949175477E-2,2.415972054E-1,1.423316002E-1
1.087433446E1,-5.803219974E-2,1.820378453E-1,1.414152980E-1
1.088433446E1,-3.634648025E-2,1.576032341E-1,1.427897513E-1
1.089433446E1,-1.939497143E-2,1.394299865E-1,1.525636017E-1
1.090433446E1,-2.306016348E-2,1.467603743E-1,1.721112877E-1
1.091433446E1,8.399397135E-3,1.635591686E-1,1.965458989E-1
1.092433446E1,3.649919853E-2,2.009746730E-1,2.101376504E-1
1.093433446E1,6.337726861E-2,2.674062550E-1,2.260201424E-1
1.094433446E1,8.659014851E-2,3.207042515E-1,2.284636050E-1
1.095433446E1,9.514226019E-2,3.193297982E-1,2.273945808E-1
1.096433446E1,9.376781434E-2,2.648100853E-1,2.249511331E-1
1.097433446E1,7.773260027E-2,1.557706445E-1,1.945605874E-1
1.098433446E1,2.641992271E-2,3.481931984E-2,1.554652005E-1
1.099433446E1,-3.466660157E-2,-6.414084882E-2,1.392772794E-1
1.100433446E1,-1.203404516E-1,-2.005165219E-1,1.463022232E-1
1.101433446E1,-1.867720485E-1,-3.272710443E-1,1.838704348E-1
1.102433446E1,-2.399173230E-1,-4.419609904E-1,2.483167201E-1
1.103433446E1,-2.901609838E-1,-4.645630121E-1,2.942843437E-1
1.104433446E1,-2.773328125E-1,-4.221078753E-1,4.089742899E-1
1.105433446E1,-2.797762752E-1,-3.008511364E-1,4.805982411E-1
1.106433446E1,-4.610505402E-1,-9.972374886E-2,4.465425014E-1
1.107433446E1,-5.502368808E-1,4.734205827E-2,3.885102868E-1
1.108433446E1,-5.739079118E-1,1.044579595E-1,3.188716471E-1
1.109433446E1,-4.934264123E-1,-3.436116874E-2,2.098322064E-1
1.110433446E1,-3.982841372E-1,-1.757764816E-1,6.673702598E-2
1.111433446E1,-3.613267839E-1,-3.132211566E-1,-9.498954564E-2
1.112433446E1,-3.451388776E-1,-3.947716653E-1,-1.983784884E-1
1.113433446E1,-2.585487068E-1,-4.462370574E-1,-2.721404731E-1
1.114433446E1,-1.464549452E-1,-4.227187634E-1,-2.935207486E-1
1.115433446E1,2.657263726E-2,-3.365867436E-1,-2.877175212E-1
1.116433446E1,2.151772827E-1,-2.638937831E-1,-2.745839357E-1
1.117433446E1,3.573561609E-1,-2.017382532E-1,-2.141082734E-1
1.118433446E1,4.288274050E-1,-1.232420653E-1,-1.333213449E-1
1.119433446E1,4.627304375E-1,5.192354787E-3,-1.756237634E-2
1.120433446E1,4.627304375E-1,1.398881376E-1,6.505715102E-2
1.121433446E1,4.515821338E-1,2.066251636E-1,1.453859210E-1
1.122433446E1,4.233296216E-1,2.359467000E-1,1.976149082E-1
1.123433446E1,3.756821156E-1,2.448042482E-1,2.351831198E-1
1.124433446E1,3.353650272E-1,2.002110779E-1,2.348776907E-1
1.125433446E1,3.306308091E-1,1.566869318E-1,2.008219510E-1
1.126433446E1,3.466660380E-1,9.697485715E-2,1.241583601E-1
1.127433446E1,3.885102868E-1,7.971791178E-2,2.947424725E-2
1.128433446E1,4.376849532E-1,6.704246253E-2,-6.047565863E-2
1.129433446E1,4.999932051E-1,6.658431143E-2,-1.113301888E-1
1.130433446E1,5.816964507E-1,5.390885845E-2,-1.595885456E-1
1.131433446E1,6.560692787E-1,5.100724846E-2,-1.823432744E-1
1.132433446E1,7.229590416E-1,5.665775016E-2,-1.757764816E-1
1.133433446E1,7.545713186E-1,7.330382615E-2,-1.792889535E-1
1.134433446E1,7.643451095E-1,7.696902007E-2,-1.915062517E-1
1.135433446E1,7.423539758E-1,5.283984542E-2,-1.915062517E-1
1.136433446E1,7.034113407E-1,2.764165215E-2,-1.869247705E-1
1.137433446E1,6.229298115E-1,7.483099122E-3,-1.788308024E-1
1.138433446E1,5.230533481E-1,-2.748893574E-3,-1.574505121E-1
1.139433446E1,4.147774875E-1,-1.527163107E-2,-1.397354305E-1
1.140433446E1,3.295617998E-1,-2.687807009E-2,-1.279762685E-1
1.141433446E1,2.357939780E-1,-5.406157300E-2,-1.211040318E-1
1.142433446E1,1.589776874E-1,-1.009454802E-1,-1.276708394E-1
1.143433446E1,1.004873365E-1,-1.502728462E-1,-1.400408596E-1
1.144433446E1,6.520986557E-2,-1.828014255E-1,-1.524108797E-1
1.145433446E1,3.604105115E-2,-2.055561543E-1,-1.721112877E-1
1.146433446E1,2.153299935E-2,-2.067778856E-1,-1.928807050E-1
1.147433446E1,1.695151068E-2,-1.849394590E-1,-2.185370475E-1
1.148433446E1,7.788531948E-3,-1.243110746E-1,-2.625193298E-1
1.149433446E1,3.512475174E-3,-4.566217586E-2,-3.077233732E-1
1.150433446E1,3.970623948E-3,3.313944116E-2,-3.394883573E-1
1.151433446E1,-7.635815418E-4,6.948592514E-2,-3.431535661E-1
1.152433446E1,-1.313360315E-2,6.230825558E-2,-3.103195429E-1
1.153433446E1,-1.374446787E-2,2.489275858E-2,-2.444988191E-1
1.154433446E1,9.773843922E-3,-2.000583708E-2,-1.443169117E-1
1.155433446E1,3.237585723E-2,-6.612616032E-2,-7.345654815E-2
1.156433446E1,6.444628537E-2,-1.740965992E-1,-3.543018550E-2
1.157433446E1,8.338310570E-2,-3.402519524E-1,-5.222897977E-2
1.158433446E1,8.918632567E-2,-4.579962194E-1,-8.491026610E-2
1.159433446E1,8.903361112E-2,-5.380195379E-1,-1.128573567E-1
1.160433446E1,1.608102769E-1,-5.929974318E-1,-1.415680200E-1
1.161433446E1,2.710714638E-1,-3.404046595E-1,-1.230893433E-1
1.162433446E1,3.045163155E-1,-7.742717117E-2,-5.619960278E-2
1.163433446E1,3.316998184E-1,-9.315694869E-2,7.681630552E-2
1.164433446E1,2.104430795E-1,-3.856086731E-1,2.069306076E-1
1.165433446E1,8.506298810E-2,-6.185010672E-1,2.869539559E-1
1.166433446E1,5.070181563E-2,-6.618725061E-1,3.098613918E-1
1.167433446E1,4.734205827E-2,-5.842925906E-1,3.255911767E-1
1.168433446E1,9.498954564E-2,-4.839579761E-1,3.379611969E-1
1.169433446E1,1.574505121E-1,-4.166100919E-1,3.065016270E-1
1.170433446E1,1.849394590E-1,-3.356704414E-1,2.359467000E-1
1.171433446E1,2.205223590E-1,-1.918116808E-1,8.735372871E-2
1.172433446E1,2.231185287E-1,-7.208210230E-2,-6.505715102E-2
1.173433446E1,1.985312104E-1,1.832595794E-3,-1.640173197E-1
1.174433446E1,1.250746548E-1,5.665775016E-2,-2.498438805E-1
1.175433446E1,3.069597855E-2,9.239336848E-2,-2.942843437E-1
1.176433446E1,-3.970624134E-2,1.340849251E-1,-2.898555696E-1
1.177433446E1,-8.231408894E-2,1.574505121E-1,-2.657263875E-1
1.178433446E1,-1.215621829E-1,1.649336219E-1,-2.257147133E-1
1.179433446E1,-1.751656085E-1,1.798998117E-1,-1.919644028E-1
1.180433446E1,-2.397646159E-1,2.034181207E-1,-1.459967941E-1
1.181433446E1,-3.057380617E-1,2.306016237E-1,-9.651670605E-2
1.182433446E1,-3.849978149E-1,2.008219510E-1,-6.154467165E-2
1.183433446E1,-4.644103050E-1,9.712757170E-2,-7.162395120E-2
1.184433446E1,-5.426010489E-1,-1.878410578E-2,-1.000291854E-1
1.185433446E1,-6.081163287E-1,-4.016438872E-2,-1.186605766E-1
1.186433446E1,-6.650795341E-1,8.552113548E-3,-1.311833113E-1
1.187433446E1,-6.914994717E-1,8.384125680E-2,-1.325577646E-1
1.188433446E1,-6.841690540E-1,1.130100712E-1,-1.264491081E-1
1.189433446E1,-6.404922009E-1,1.237002090E-1,-9.941831976E-2
1.190433446E1,-5.699372888E-1,1.728748679E-1,-6.017022580E-2
1.191433446E1,-4.848742783E-1,2.232712507E-1,-2.199114859E-2
1.192433446E1,-4.022547603E-1,2.434297949E-1,-7.635815418E-4
1.193433446E1,-3.210096955E-1,2.587014437E-1,4.352414981E-2
1.194433446E1,-2.458732575E-1,2.837468982E-1,1.024726480E-1
1.195433446E1,-1.876883507E-1,2.895501256E-1,1.417207420E-1
1.196433446E1,-1.404990107E-1,2.808452845E-1,1.530217379E-1
1.197433446E1,-9.193521738E-2,2.428189367E-1,1.508837193E-1
1.198433446E1,-6.291911751E-2,1.711949855E-1,1.461495161E-1
1.199433446E1,-4.871650413E-2,1.117883399E-1,1.560760736E-1
1.200433446E1,-3.313944116E-2,5.833763257E-2,1.745547503E-1
1.201433446E1,-3.100141138E-2,1.710422710E-2,1.953241676E-1
1.202433446E1,-2.031126991E-2,9.773843922E-3,2.197587788E-1
1.203433446E1,3.970623948E-3,2.672535367E-2,2.284636050E-1
1.204433446E1,3.100141138E-2,7.131851465E-2,2.309070677E-1
1.205433446E1,5.177082866E-2,1.293507218E-1,2.371684313E-1
1.206433446E1,5.696318299E-2,1.789835095E-1,2.309070677E-1
1.207433446E1,6.078109145E-2,1.898263693E-1,2.090686262E-1
1.208433446E1,6.093380973E-2,1.571450830E-1,1.469130963E-1
1.209433446E1,6.612616032E-2,8.536841720E-2,6.902777404E-2
1.210433446E1,6.734789163E-2,7.788531948E-3,1.313360315E-2
1.211433446E1,3.436116874E-2,-1.072068512E-1,-2.840523422E-2
1.212433446E1,-1.954768784E-2,-2.220495194E-1,-3.344487399E-2
1.213433446E1,-7.376197726E-2,-3.197879493E-1,-7.635815418E-4
1.214433446E1,-1.131627858E-1,-3.813326359E-1,5.161811411E-2
1.215433446E1,-1.537853181E-1,-3.833179474E-1,1.183551401E-1
1.216433446E1,-1.626428664E-1,-3.552181423E-1,2.047925740E-1
1.217433446E1,-1.884519309E-1,-2.750420868E-1,3.008511364E-1
1.218433446E1,-3.057380617E-1,-1.021672115E-1,2.987131178E-1
1.219433446E1,-4.149302244E-1,1.820378453E-1,2.441933751E-1
1.220433446E1,-4.340197444E-1,1.881465018E-1,1.721112877E-1
1.221433446E1,-3.623957932E-1,-3.543018550E-2,6.918048859E-2
1.222433446E1,-2.748893499E-1,-1.889100820E-1,-2.519819140E-2
1.223433446E1,-1.872301996E-1,-3.313944042E-1,-1.207986027E-1
1.224433446E1,-1.194241568E-1,-4.712825418E-1,-1.762346178E-1
1.225433446E1,-1.001819000E-1,-5.816964507E-1,-1.954768747E-1
1.226433446E1,-1.320996135E-1,-6.542366743E-1,-1.980730593E-1
1.227433446E1,-1.406517178E-1,-6.201809645E-1,-1.798998117E-1
1.228433446E1,-1.137736514E-1,-5.123631954E-1,-1.224784851E-1
1.229433446E1,-8.933904022E-2,-3.828597963E-1,-6.765332818E-2
1.230433446E1,-5.513058975E-2,-2.156354338E-1,1.511891466E-2
1.231433446E1,-2.962696366E-2,-6.414084882E-2,1.052215397E-1
1.232433446E1,7.177666761E-3,1.198823079E-1,1.661553532E-1
1.233433446E1,7.101308554E-2,2.782491148E-1,1.858557463E-1
1.234433446E1,1.492038369E-1,4.450153410E-1,2.128865421E-1
1.235433446E1,1.983784884E-1,5.684100986E-1,2.057088763E-1
1.236433446E1,2.218967974E-1,6.203336716E-1,1.838704348E-1
1.237433446E1,2.121229619E-1,5.645921826E-1,1.510364264E-1
1.238433446E1,1.872301996E-1,4.144720733E-1,1.412625909E-1
1.239433446E1,1.305724531E-1,2.463314086E-1,1.569923609E-1
1.240433446E1,8.613199741E-2,1.036943719E-1,1.776090711E-1
1.241433446E1,6.230825558E-2,-7.192938030E-2,1.898263693E-1
1.242433446E1,7.040221989E-2,-1.835650057E-1,1.718058437E-1
1.243433446E1,1.033889428E-1,-2.249511331E-1,1.342376322E-1
1.244433446E1,1.534798890E-1,-2.205223590E-1,1.039998084E-1
1.245433446E1,2.182316035E-1,-1.736384481E-1,8.368854225E-2
1.246433446E1,2.976440787E-1,-1.015563458E-1,5.955936015E-2
1.247433446E1,3.601050675E-1,-2.199114859E-2,3.558290005E-2
1.248433446E1,4.105014503E-1,6.612616032E-2,3.054326226E-4
1.249433446E1,4.243986309E-1,1.435533315E-1,-3.252857551E-2
1.250433446E1,4.066835344E-1,2.102903575E-1,-7.299839705E-2
1.251433446E1,3.741549551E-1,2.396118939E-1,-1.036943719E-1
1.252433446E1,3.220787048E-1,2.544253767E-1,-1.258382350E-1
1.253433446E1,2.576324046E-1,2.390010208E-1,-1.383609772E-1
1.254433446E1,1.931861341E-1,2.018909603E-1,-1.496619880E-1
1.255433446E1,1.455386430E-1,1.548543423E-1,-1.548543423E-1
1.256433446E1,8.811730891E-2,6.795875728E-2,-1.733330190E-1
1.257433446E1,3.573561832E-2,-1.175915636E-2,-1.930334121E-1
1.258433446E1,-5.803219974E-3,-8.170322329E-2,-2.064724565E-1
1.259433446E1,-2.412917651E-2,-1.264491081E-1,-2.139555514E-1
1.260433446E1,-3.634648025E-2,-1.554652005E-1,-2.273945808E-1
1.261433446E1,-4.352414981E-2,-1.507309973E-1,-2.457205504E-1
1.262433446E1,-5.070181563E-2,-1.154535338E-1,-2.567161322E-1
1.263433446E1,-6.246097013E-2,-4.031710699E-2,-2.703078687E-1
1.264433446E1,-6.322455406E-2,3.848451003E-2,-2.837468982E-1
1.265433446E1,-7.880161703E-2,9.315694869E-2,-2.851213515E-1
1.266433446E1,-9.239336848E-2,9.437867999E-2,-2.645046413E-1
1.267433446E1,-1.098030284E-1,5.940664560E-2,-2.170098722E-1
1.268433446E1,-8.246681094E-2,2.672535367E-2,-1.449277848E-1
1.269433446E1,-2.336559631E-2,1.542434748E-2,-6.658431143E-2
1.270433446E1,2.977968007E-2,-1.985312067E-2,-2.244929783E-2
1.271433446E1,9.850201756E-2,-1.452332139E-1,-1.221730490E-3
1.272433446E1,1.501201391E-1,-3.042109013E-1,-5.497787148E-3
1.273433446E1,1.826487035E-1,-4.184426963E-1,-2.107485011E-2
1.274433446E1,2.251038402E-1,-4.842634201E-1,-5.604688451E-2
1.275433446E1,2.596177161E-1,-4.433354437E-1,-1.035416573E-1
1.276433446E1,3.184134960E-1,-3.964515328E-1,-1.470658034E-1
1.277433446E1,4.007275999E-1,-2.588541508E-1,-1.748601794E-1
1.278433446E1,4.686863720E-1,4.978551716E-2,-1.589776874E-1
1.279433446E1,4.783074856E-1,1.492038369E-1,-8.827003092E-2
1.280433446E1,4.222606122E-1,-4.535674304E-2,4.276056774E-3
1.281433446E1,3.226895630E-1,-2.325869352E-1,5.024366826E-2
1.282433446E1,2.101376504E-1,-3.578143120E-1,9.850201756E-2
1.283433446E1,1.244637966E-1,-3.790418804E-1,1.722639948E-1
1.284433446E1,9.987647086E-2,-3.448334336E-1,2.403754741E-1
1.285433446E1,1.130100712E-1,-3.229950070E-1,2.745839357E-1
1.286433446E1,1.350012124E-1,-3.061962128E-1,2.721404731E-1
1.287433446E1,1.281289905E-1,-2.637410760E-1,2.354885489E-1
1.288433446E1,1.177442744E-1,-2.008219510E-1,1.817324162E-1
1.289433446E1,9.941831976E-2,-1.087340117E-1,6.459899992E-2
1.290433446E1,7.254024595E-2,-9.162978968E-4,-6.123924255E-2
1.291433446E1,1.756237634E-2,6.719517708E-2,-1.554652005E-1
1.292433446E1,-3.420845419E-2,1.183551401E-1,-2.032654136E-1
1.293433446E1,-7.757988572E-2,1.974621862E-1,-2.304489166E-1
1.294433446E1,-8.689557761E-2,3.028364480E-1,-2.318233550E-1
1.295433446E1,-8.765916526E-2,4.302018583E-1,-2.258674204E-1
1.296433446E1,-8.979719132E-2,5.271766782E-1,-2.150245607E-1
1.297433446E1,-1.140790880E-1,5.503895879E-1,-2.078468949E-1
1.298433446E1,-1.838704348E-1,4.440990388E-1,-1.996002197E-1
1.299433446E1,-2.525927722E-1,3.126102984E-1,-1.730275750E-1
1.300433446E1,-3.570507467E-1,1.435533315E-1,-1.088867337E-1
1.301433446E1,-4.538728893E-1,3.527746722E-2,-4.948008433E-2
1.302433446E1,-5.248859525E-1,-3.054326167E-3,1.221730467E-2
1.303433446E1,-5.739079118E-1,-1.832595654E-2,4.734205827E-2
1.304433446E1,-6.152940392E-1,2.916881628E-2,1.067487001E-1
1.305433446E1,-6.395758986E-1,1.409571618E-1,1.563815027E-1
1.306433446E1,-6.478226185E-1,2.391537428E-1,1.647808999E-1
1.307433446E1,-6.401867867E-1,2.997821271E-1,1.721112877E-1
1.308433446E1,-5.891795158E-1,3.443752825E-1,1.881465018E-1
1.309433446E1,-5.174028873E-1,3.790418804E-1,2.055561543E-1
1.310433446E1,-4.578435123E-1,3.822489381E-1,2.229658216E-1
1.311433446E1,-3.788891733E-1,3.770565689E-1,2.429716438E-1
1.312433446E1,-3.037527502E-1,3.449861407E-1,2.483167201E-1
1.313433446E1,-2.383901626E-1,2.646573782E-1,2.536617815E-1
1.314433446E1,-1.863138974E-1,1.915062517E-1,2.466368377E-1
1.315433446E1,-1.221730486E-1,9.407325089E-2,2.289217561E-1
1.316433446E1,-7.131851465E-2,2.474004216E-2,2.194533348E-1
1.317433446E1,-3.008511290E-2,-1.557706390E-2,2.173153162E-1
1.318433446E1,-1.435533352E-2,-2.290744707E-2,2.270891517E-1
1.319433446E1,-1.328631863E-2,-1.191187184E-2,2.539672256E-1
1.320433446E1,-4.886921961E-3,1.099557430E-2,2.929098904E-1
1.321433446E1,-2.306016348E-2,8.277224004E-2,3.184134960E-1
1.322433446E1,-3.604105115E-2,1.882992089E-1,3.315471113E-1
1.323433446E1,-2.229658142E-2,3.214678466E-1,3.339905739E-1
1.324433446E1,4.886921961E-3,4.097378552E-1,3.291036487E-1
1.325433446E1,8.704829961E-3,4.109596014E-1,3.084869385E-1
1.326433446E1,-6.795875728E-2,3.350595832E-1,2.703078687E-1
1.327433446E1,-1.996002197E-1,1.904372424E-1,2.295326144E-1
1.328433446E1,-3.194825351E-1,8.093964309E-3,2.168571651E-1
1.329433446E1,-3.808744848E-1,-1.320996135E-1,2.252565622E-1
1.330433446E1,-4.338670373E-1,-2.819143236E-1,2.532036304E-1
1.331433446E1,-4.880813360E-1,-3.845396638E-1,2.981022298E-1
1.332433446E1,-5.253441334E-1,-4.363104999E-1,3.892738819E-1
1.333433446E1,-5.487096906E-1,-3.937026560E-1,4.634940028E-1
1.334433446E1,-5.209153295E-1,-2.918408811E-1,5.499314666E-1
1.335433446E1,-5.464189649E-1,-1.594358236E-1,6.252205968E-1
1.336433446E1,-6.766859889E-1,-0.000000000E0,5.658139586E-1
1.337433446E1,-8.016079068E-1,1.933388561E-1,4.308127165E-1
1.338433446E1,-7.583891749E-1,2.547308207E-1,3.761402667E-1
1.339433446E1,-5.552765131E-1,1.065959856E-1,2.690861523E-1
1.340433446E1,-3.811798990E-1,-3.878994286E-2,1.446223408E-1
1.341433446E1,-2.290744632E-1,-2.047925740E-1,1.542434748E-2
1.342433446E1,-1.211040318E-1,-3.982841372E-1,-5.940664560E-2
1.343433446E1,-7.651086897E-2,-5.732970238E-1,-9.666942805E-2
1.344433446E1,-5.222897977E-2,-6.365215778E-1,-1.281289905E-1
1.345433446E1,3.970623948E-3,-5.992587805E-1,-1.388191283E-1
1.346433446E1,8.827003092E-2,-4.955644310E-1,-1.397354305E-1
1.347433446E1,2.076941878E-1,-3.860668242E-1,-1.330159009E-1
1.348433446E1,3.016147017E-1,-2.944370508E-1,-1.021672115E-1
1.349433446E1,4.027129114E-1,-1.543961912E-1,-5.177082866E-2
1.350433446E1,4.931209683E-1,5.039638374E-3,-1.496619824E-2
1.351433446E1,5.713117123E-1,1.414152980E-1,3.665191587E-3
1.352433446E1,6.618725061E-1,2.996293902E-1,1.863138936E-2
1.353433446E1,7.194465399E-1,4.120286107E-1,4.123340361E-3
1.354433446E1,7.283040881E-1,4.555527568E-1,-2.153299935E-2
1.355433446E1,7.029531598E-1,4.387539625E-1,-4.963280261E-2
1.356433446E1,6.614143252E-1,3.941608071E-1,-5.833763257E-2
1.357433446E1,6.296493411E-1,2.875648141E-1,-8.765916526E-2
1.358433446E1,6.162103415E-1,1.724167168E-1,-1.459967941E-1
1.359433446E1,6.111706495E-1,9.483683109E-2,-1.727221459E-1
1.360433446E1,6.291912198E-1,1.603521220E-2,-1.921171248E-1
1.361433446E1,6.630942225E-1,-4.245513305E-2,-2.064724565E-1
1.362433446E1,7.165449262E-1,-7.666359097E-2,-2.086104751E-1
1.363433446E1,8.075638413E-1,-1.185078546E-1,-2.031126916E-1
1.364433446E1,9.010262489E-1,-1.360702366E-1,-1.892155111E-1
1.365433446E1,9.824240208E-1,-1.220203340E-1,-1.838704348E-1
1.366433446E1,1.023962855E0,-9.682214260E-2,-1.908953935E-1
1.367433446E1,1.027780771E0,-7.147123665E-2,-2.067778856E-1
1.368433446E1,9.952521920E-1,-3.130684420E-2,-2.228130996E-1
1.369433446E1,9.372199774E-1,3.573561832E-2,-2.477058619E-1
1.370433446E1,8.852964640E-1,7.605272532E-2,-2.675589919E-1
1.371433446E1,8.173376918E-1,8.124507964E-2,-2.959642112E-1
1.372433446E1,7.420485616E-1,6.230825558E-2,-3.255911767E-1
1.373433446E1,6.824892163E-1,3.481931984E-2,-3.393356502E-1
1.374433446E1,6.130032539E-1,-1.206458826E-2,-3.481931984E-1
1.375433446E1,5.485569835E-1,-5.528330430E-2,-3.593414724E-1
1.376433446E1,4.973970354E-1,-7.315111160E-2,-3.743076921E-1
1.377433446E1,4.696026444E-1,-7.299839705E-2,-3.805690408E-1
1.378433446E1,4.318817258E-1,-7.635815442E-2,-3.831652105E-1
1.379433446E1,3.795000315E-1,-8.567385375E-2,-3.736968040E-1
1.380433446E1,3.211624026E-1,-6.597344577E-2,-3.631593883E-1
1.381433446E1,2.809980214E-1,-3.527746722E-2,-3.488040566E-1
1.382433446E1,2.420553565E-1,2.199114859E-2,-3.149010241E-1
1.383433446E1,2.066251636E-1,6.459899992E-2,-2.677116990E-1
1.384433446E1,1.699732542E-1,5.650503561E-2,-2.252565622E-1
1.385433446E1,1.525636017E-1,3.604105115E-2,-1.912008226E-1
1.386433446E1,1.522581577E-1,1.664607786E-2,-1.447750628E-1
1.387433446E1,1.652390510E-1,-3.054326214E-2,-1.020144969E-1
1.388433446E1,1.757764816E-1,-8.399397135E-2,-8.002334833E-2
1.389433446E1,1.802052408E-1,-1.760819107E-1,-7.498370856E-2
1.390433446E1,1.860084683E-1,-2.948952019E-1,-1.003346145E-1
1.391433446E1,2.015855312E-1,-4.150829315E-1,-1.440114826E-1
1.392433446E1,2.211332172E-1,-4.637994468E-1,-1.828014255E-1
1.393433446E1,2.663372457E-1,-4.980078936E-1,-2.362521291E-1
1.394433446E1,4.043927789E-1,-4.323398769E-1,-2.890919745E-1
1.395433446E1,5.766568184E-1,-2.408336252E-1,-2.968805134E-1
1.396433446E1,6.643159389E-1,-1.637118906E-1,-2.721404731E-1
1.397433446E1,6.805039048E-1,-2.727513313E-1,-2.084577680E-1
1.398433446E1,6.050620079E-1,-4.407392740E-1,-1.185078546E-1
1.399433446E1,5.691736937E-1,-4.851797223E-1,-4.566217586E-2
1.400433446E1,5.725334287E-1,-4.111123085E-1,5.910121277E-2
1.401433446E1,5.943718553E-1,-2.887865305E-1,1.383609772E-1
1.402433446E1,6.175847650E-1,-1.785253733E-1,1.944078654E-1
1.403433446E1,6.310238242E-1,-1.385136992E-1,1.980730593E-1
1.404433446E1,5.962044597E-1,-1.069014147E-1,1.649336219E-1
1.405433446E1,5.299255848E-1,-6.780604273E-2,8.888089657E-2
1.406433446E1,4.747950137E-1,-2.764165215E-2,-3.573561832E-2
1.407433446E1,4.221078753E-1,7.635815535E-3,-1.334740520E-1
1.408433446E1,3.318525553E-1,5.421429127E-2,-2.522873580E-1
1.409433446E1,2.499966025E-1,1.345430762E-1,-3.381139040E-1
1.410433446E1,2.006692290E-1,1.893682331E-1,-3.909537494E-1
1.411433446E1,1.685988009E-1,2.580905557E-1,-4.337143302E-1
1.412433446E1,1.618792862E-1,3.332269788E-1,-4.654793143E-1
1.413433446E1,1.574505121E-1,3.938553631E-1,-4.899139404E-1
1.414433446E1,1.537853181E-1,4.144720733E-1,-4.754058719E-1
1.415433446E1,1.241583601E-1,4.074471295E-1,-4.182899892E-1
1.416433446E1,4.688390717E-2,3.886630237E-1,-3.223841190E-1
1.417433446E1,-3.512475267E-2,3.445279896E-1,-2.545780838E-1
1.418433446E1,-9.773843735E-2,2.868012190E-1,-2.000583708E-1
1.419433446E1,-1.446223408E-1,1.927279830E-1,-1.478293836E-1
1.420433446E1,-1.843285859E-1,9.239336848E-2,-8.689557761E-2
1.421433446E1,-1.907426715E-1,5.619960278E-2,-5.039638281E-2
1.422433446E1,-1.919644028E-1,7.437284291E-2,-5.894849449E-2
1.423433446E1,-1.550070494E-1,1.371392459E-1,-7.590000331E-2
1.424433446E1,-8.536841720E-2,1.875356287E-1,-9.743300825E-2
1.425433446E1,-1.374446787E-3,2.160935849E-1,-1.030835137E-1
1.426433446E1,1.165225431E-1,2.359467000E-1,-8.414668590E-2
1.427433446E1,2.333505303E-1,2.460259795E-1,-7.987063378E-2
1.428433446E1,3.573561609E-1,2.587014437E-1,-6.582073122E-2
1.429433446E1,4.471533597E-1,2.593123019E-1,-3.481931984E-2
1.430433446E1,5.331326723E-1,2.321287990E-1,-2.596177394E-3
1.431433446E1,5.936083198E-1,1.773036420E-1,1.603521220E-2
1.432433446E1,6.298020482E-1,1.285871267E-1,3.451388702E-2
1.433433446E1,6.514877677E-1,1.078177169E-1,5.299255997E-2
1.434433446E1,6.658431292E-1,9.926560521E-2,8.353582025E-2
1.435433446E1,6.754642725E-1,1.029307917E-1,1.055269688E-1
1.436433446E1,6.693555713E-1,1.235474944E-1,1.201877370E-1
1.437433446E1,6.377432942E-1,1.722639948E-1,1.467603743E-1
1.438433446E1,6.038402915E-1,2.393064648E-1,1.744020283E-1
1.439433446E1,5.673410892E-1,2.976440787E-1,2.021963894E-1
1.440433446E1,5.503895879E-1,3.294090927E-1,2.252565622E-1
1.441433446E1,5.418374538E-1,3.512475193E-1,2.458732575E-1
1.442433446E1,5.549710989E-1,3.402519524E-1,2.568688393E-1
1.443433446E1,5.671883821E-1,3.110831380E-1,2.496911734E-1
1.444433446E1,5.584835410E-1,2.675589919E-1,2.350303978E-1
1.445433446E1,4.963280261E-1,1.757764816E-1,2.104430795E-1
1.446433446E1,3.949243724E-1,4.062253982E-2,2.003637999E-1
1.447433446E1,3.104722500E-1,-1.102611795E-1,2.061670274E-1
1.448433446E1,2.782491148E-1,-2.277000248E-1,2.243402600E-1
1.449433446E1,2.606867552E-1,-3.414736688E-1,2.328923792E-1
1.450433446E1,3.005456924E-1,-3.089450896E-1,2.890919745E-1
1.451433446E1,4.512766898E-1,-2.710714638E-1,3.375030458E-1
1.452433446E1,4.691445231E-1,-9.300423414E-2,2.959642112E-1
1.453433446E1,3.248275816E-1,2.153299935E-2,1.256855279E-1
1.454433446E1,2.557998300E-1,1.099557430E-2,7.040221989E-2
1.455433446E1,3.213151097E-1,-1.470658034E-1,3.054326226E-4
1.456433446E1,4.694499373E-1,-4.257730842E-1,-1.447750628E-1
1.457433446E1,5.366451144E-1,-5.839871764E-1,-2.929098904E-1
1.458433446E1,5.931501389E-1,-6.183483601E-1,-4.022547603E-1
1.459433446E1,6.652322412E-1,-6.371324658E-1,-4.712825418E-1
1.460433446E1,8.176431060E-1,-6.406449080E-1,-5.313000679E-1
1.461433446E1,9.894489646E-1,-5.824599862E-1,-5.645921826E-1
1.462433446E1,1.138194680E0,-5.033529401E-1,-5.650503635E-1
1.463433446E1,1.311069489E0,-4.014911950E-1,-5.409211516E-1
1.464433446E1,1.458135366E0,-3.271183372E-1,-4.867068827E-1
1.465433446E1,1.569923639E0,-2.538145185E-1,-4.153883755E-1
1.466433446E1,1.653459549E0,-2.044871449E-1,-3.455969989E-1
1.467433446E1,1.716531396E0,-1.502728462E-1,-2.660318017E-1
1.468433446E1,1.727526903E0,-7.269296050E-2,-2.295326144E-1
1.469433446E1,1.700801611E0,-1.679879427E-2,-1.980730593E-1
1.470433446E1,1.659415483E0,-1.175915636E-2,-2.055561543E-1
1.471433446E1,1.616960287E0,-7.941248268E-2,-2.605340183E-1
1.472433446E1,1.611004353E0,-1.459967941E-1,-3.141374588E-1
1.473433446E1,1.617265701E0,-1.861611903E-1,-3.750712574E-1
1.474433446E1,1.651779652E0,-2.023491114E-1,-4.589125216E-1
1.475433446E1,1.693623900E0,-2.002110779E-1,-5.342016816E-1
1.476433446E1,1.737758875E0,-1.715004146E-1,-5.839871764E-1
1.477433446E1,1.789071560E0,-1.548543423E-1,-5.983424783E-1
1.478433446E1,1.839926124E0,-1.539380401E-1,-5.687155724E-1
1.479433446E1,1.888337135E0,-1.687515229E-1,-5.294674635E-1
1.480433446E1,1.932930350E0,-1.798998117E-1,-4.804455042E-1
1.481433446E1,1.948507428E0,-1.847867370E-1,-4.511239827E-1
1.482433446E1,1.949576378E0,-1.968513280E-1,-4.205807149E-1
1.483433446E1,1.915215254E0,-2.038762718E-1,-3.878994286E-1
1.484433446E1,1.843438625E0,-1.828014255E-1,-3.749185503E-1
1.485433446E1,1.764484286E0,-1.676825136E-1,-3.802636266E-1
1.486433446E1,1.643074751E0,-1.354593635E-1,-3.920227587E-1
1.487433446E1,1.504713774E0,-1.104138941E-1,-4.062253833E-1
1.488433446E1,1.390482068E0,-9.147707373E-2,-4.190535545E-1
1.489433446E1,1.272737741E0,-7.742717117E-2,-4.404338300E-1
1.490433446E1,1.173319459E0,-5.864306539E-2,-4.605923891E-1
1.491433446E1,1.094365120E0,-3.145955876E-2,-4.743368626E-1
1.492433446E1,1.045953989E0,-1.298088674E-2,-4.844161272E-1
1.493433446E1,9.925032854E-1,-5.497787148E-3,-4.969388843E-1
1.494433446E1,9.366091490E-1,-9.926560335E-3,-5.033529401E-1
1.495433446E1,8.659014702E-1,-5.192354694E-2,-5.012149215E-1
1.496433446E1,8.084801435E-1,-1.000291854E-1,-4.893030524E-1
1.497433446E1,7.632761002E-1,-1.275181174E-1,-4.749477208E-1
1.498433446E1,7.499898076E-1,-1.238529310E-1,-4.749477208E-1
1.499433446E1,7.648032904E-1,-9.972374886E-2,-5.006040931E-1
1.500433446E1,8.017606139E-1,-6.368270516E-2,-5.636758804E-1
1.501433446E1,8.425359130E-1,-4.230241850E-2,-6.488916278E-1
1.502433446E1,8.772025108E-1,-4.382958263E-2,-7.461718917E-1
1.503433446E1,9.127854109E-1,-6.230825558E-2,-8.153523803E-1
1.504433446E1,9.615018964E-1,-1.232420653E-1,-8.539896011E-1
1.505433446E1,1.003346205E0,-2.313652188E-1,-8.145887852E-1
1.506433446E1,1.032820463E0,-3.501785100E-1,-7.302893996E-1
1.507433446E1,1.046564937E0,-4.387539625E-1,-6.569855809E-1
1.508433446E1,1.067792416E0,-4.871650338E-1,-5.873469114E-1
1.509433446E1,1.108873129E0,-5.201517344E-1,-5.505422950E-1
1.510433446E1,1.195005178E0,-4.926628172E-1,-5.062545538E-1
1.511433446E1,1.214552879E0,-3.631593883E-1,-4.453207552E-1
1.512433446E1,1.196074128E0,-2.379320115E-1,-3.394883573E-1
1.513433446E1,1.114829063E0,-3.136793077E-1,-2.131919712E-1
1.514433446E1,1.002887964E0,-4.424191415E-1,-1.027780771E-1
1.515433446E1,8.987354636E-1,-5.349652171E-1,-3.375030309E-2
1.516433446E1,8.613200188E-1,-4.656320214E-1,-3.161227703E-2
1.517433446E1,8.998045325E-1,-3.132211566E-1,-5.849034712E-2
1.518433446E1,9.758572578E-1,-1.864666194E-1,-8.002334833E-2
1.519433446E1,1.079856992E0,-7.819075137E-2,-1.246165112E-1
1.520433446E1,1.129337072E0,6.261368748E-3,-1.939497143E-1
1.521433446E1,1.137583852E0,8.964447677E-2,-2.927571833E-1
1.522433446E1,1.117425203E0,1.055269688E-1,-3.769038618E-1
1.523433446E1,1.055880547E0,9.483683109E-2,-4.552473128E-1
1.524433446E1,9.517280459E-1,1.426370293E-1,-4.912883639E-1
1.525433446E1,8.535314798E-1,2.185370475E-1,-4.955644310E-1
1.526433446E1,7.322747111E-1,3.416263759E-1,-4.720461071E-1
1.527433446E1,6.291912198E-1,4.526511431E-1,-4.508185387E-1
1.528433446E1,5.467243791E-1,5.259549618E-1,-4.318817258E-1
1.529433446E1,4.834998548E-1,5.482515693E-1,-4.187481403E-1
1.530433446E1,4.016439021E-1,5.184718966E-1,-3.863722682E-1
1.531433446E1,3.147483170E-1,4.390594065E-1,-3.514002264E-1
1.532433446E1,2.072360367E-1,3.320052624E-1,-3.347541690E-1
1.533433446E1,1.082758680E-1,2.307543457E-1,-3.109304011E-1
1.534433446E1,-1.160643995E-2,1.310305893E-1,-2.724458873E-1
1.535433446E1,-1.131627858E-1,7.116580009E-2,-2.021963894E-1
1.536433446E1,-1.780672222E-1,5.833763257E-2,-1.356120855E-1
1.537433446E1,-2.212859392E-1,3.207042441E-2,-5.543602258E-2
1.538433446E1,-2.409863323E-1,2.260201424E-2,-2.138028294E-2
1.539433446E1,-2.324342281E-1,4.550946131E-2,-1.649336144E-2
1.540433446E1,-1.957823038E-1,8.888089657E-2,-1.756237634E-2
1.541433446E1,-1.333213449E-1,1.612684280E-1,-4.046982154E-2
1.542433446E1,-3.924809024E-2,2.247984111E-1,-5.818491429E-2
1.543433446E1,6.200282276E-2,3.029891551E-1,-7.483099401E-2
1.544433446E1,1.388191283E-1,3.509420753E-1,-7.681630552E-2
1.545433446E1,2.240348309E-1,3.709479272E-1,-6.551529467E-2
1.546433446E1,3.042109013E-1,3.619376719E-1,-7.223481685E-2
1.547433446E1,3.601050675E-1,3.228422701E-1,-7.803803682E-2
1.548433446E1,3.877467215E-1,2.645046413E-1,-6.811147183E-2
1.549433446E1,3.822489381E-1,1.785253733E-1,-3.268129006E-2
1.550433446E1,3.514002264E-1,1.108720452E-1,1.237002108E-2
1.551433446E1,3.119994104E-1,7.605272532E-2,5.849034712E-2
1.552433446E1,2.496911734E-1,6.200282276E-2,1.130100712E-1
1.553433446E1,1.739438772E-1,6.750060618E-2,1.612684280E-1
1.554433446E1,1.044579595E-1,8.857546002E-2,2.144137025E-1
1.555433446E1,5.681046844E-2,1.143845171E-1,2.629774809E-1
1.556433446E1,2.382374369E-2,1.571450830E-1,3.174972236E-1
1.557433446E1,2.382374369E-2,2.067778856E-1,3.393356502E-1
1.558433446E1,5.681046844E-2,2.272418737E-1,3.213151097E-1
1.559433446E1,9.346238524E-2,1.832595766E-1,2.666426897E-1
1.560433446E1,1.105666086E-1,5.574145541E-2,1.731802970E-1
1.561433446E1,8.124507964E-2,-1.174388453E-1,9.514226019E-2
1.562433446E1,4.566217586E-2,-2.591595948E-1,6.475171447E-2
1.563433446E1,4.886921961E-3,-4.017966092E-1,7.070764899E-2
1.564433446E1,-8.704829961E-3,-4.502076805E-1,7.803803682E-2
1.565433446E1,5.268712714E-2,-4.576907754E-1,1.624901593E-1
1.566433446E1,5.299255997E-2,-3.972151279E-1,1.708895564E-1
1.567433446E1,-5.558873713E-2,-2.390010208E-1,1.310305893E-1
1.568433446E1,-8.552113175E-2,-1.127046347E-1,1.223257631E-1
1.569433446E1,-3.543018550E-2,-1.566869318E-1,7.147123665E-2
1.570433446E1,3.023782931E-2,-2.554943860E-1,4.886921961E-3
1.571433446E1,6.566801667E-2,-3.491095006E-1,-8.139779419E-2
1.572433446E1,4.749477282E-2,-4.156937897E-1,-1.325577646E-1
1.573433446E1,1.817324013E-2,-4.761694670E-1,-1.557706445E-1
1.574433446E1,2.794708498E-2,-5.332853794E-1,-1.922698319E-1
1.575433446E1,1.010981947E-1,-4.961752892E-1,-2.101376504E-1
1.576433446E1,2.122756690E-1,-3.962988257E-1,-2.168571651E-1
1.577433446E1,3.170390725E-1,-3.327688277E-1,-2.127338201E-1
1.578433446E1,4.386012554E-1,-2.788599730E-1,-1.670716405E-1
1.579433446E1,5.198463202E-1,-2.054034323E-1,-1.033889428E-1
1.580433446E1,5.771149397E-1,-6.139195710E-2,-1.786780916E-2
1.581433446E1,6.101016402E-1,9.239336848E-2,3.940080851E-2
1.582433446E1,6.288857460E-1,2.790127099E-1,8.445212245E-2
1.583433446E1,6.340781450E-1,4.182899892E-1,1.000291854E-1
1.584433446E1,6.317873597E-1,4.644103050E-1,1.159116775E-1
1.585433446E1,5.988006592E-1,4.379903674E-1,1.133155003E-1
1.586433446E1,5.670356750E-1,3.242167234E-1,8.155050874E-2
1.587433446E1,5.436700583E-1,1.618792862E-1,2.306016348E-2
1.588433446E1,5.300782919E-1,4.062253982E-2,-2.061670274E-2
1.589433446E1,5.419901609E-1,-9.040805697E-2,-7.162395120E-2
1.590433446E1,5.699372888E-1,-1.779145002E-1,-1.140790880E-1
1.591433446E1,6.039929986E-1,-2.168571651E-1,-1.345430762E-1
1.592433446E1,6.368269920E-1,-2.255619913E-1,-1.525636017E-1
1.593433446E1,6.769914031E-1,-2.222022265E-1,-1.524108797E-1
1.594433446E1,6.940956116E-1,-1.798998117E-1,-1.426370293E-1
1.595433446E1,6.834055185E-1,-1.119410545E-1,-1.440114826E-1
1.596433446E1,6.447682381E-1,-5.849034712E-2,-1.429424733E-1
1.597433446E1,5.804746747E-1,1.527163113E-4,-1.348485053E-1
1.598433446E1,5.114469528E-1,6.001751125E-2,-1.328631938E-1
1.599433446E1,4.495968223E-1,9.926560521E-2,-1.345430762E-1
1.600433446E1,3.694207668E-1,1.299615800E-1,-1.374446750E-1
1.601433446E1,3.002402782E-1,1.414152980E-1,-1.427897513E-1
1.602433446E1,2.356412709E-1,1.198823079E-1,-1.516472995E-1
1.603433446E1,1.942551434E-1,8.139779419E-2,-1.603521258E-1
1.604433446E1,1.540907621E-1,3.313944116E-2,-1.837177277E-1
1.605433446E1,1.285871267E-1,-7.941247895E-3,-2.167044431E-1
1.606433446E1,1.128573567E-1,-2.855795063E-2,-2.472477108E-1
1.607433446E1,1.105666086E-1,-2.855795063E-2,-2.703078687E-1
1.608433446E1,1.229366288E-1,-1.527163107E-2,-2.898555696E-1
1.609433446E1,1.255328059E-1,-7.635815418E-4,-3.055853248E-1
1.610433446E1,1.098030284E-1,-1.985311974E-3,-3.191770911E-1
1.611433446E1,9.407325089E-2,-1.389718428E-2,-3.277291954E-1
1.612433446E1,9.162978828E-2,-2.611448988E-2,-3.350595832E-1
1.613433446E1,8.903361112E-2,-3.207042441E-2,-3.313944042E-1
1.614433446E1,8.536841720E-2,-4.169155285E-2,-3.130684495E-1
1.615433446E1,8.735372871E-2,-6.108652428E-2,-2.704605758E-1
1.616433446E1,1.064432710E-1,-7.452555746E-2,-2.130392492E-1
1.617433446E1,1.375973970E-1,-8.918632567E-2,-1.507309973E-1
1.618433446E1,1.627955884E-1,-1.328631938E-1,-1.151480973E-1
1.619433446E1,1.817324162E-1,-2.541199327E-1,-1.027780771E-1
1.620433446E1,1.860084683E-1,-3.839288056E-1,-1.061378345E-1
1.621433446E1,1.869247705E-1,-5.148066878E-1,-1.255328059E-1
1.622433446E1,2.438879460E-1,-6.134614348E-1,-1.641700417E-1
1.623433446E1,3.466660380E-1,-4.952589869E-1,-1.892155111E-1
1.624433446E1,3.605632186E-1,-2.249511331E-1,-1.188132912E-1
1.625433446E1,3.697261810E-1,-2.370157093E-1,-2.122756653E-2
1.626433446E1,3.100140989E-1,-4.305072725E-1,6.643159688E-2
1.627433446E1,2.020436823E-1,-5.581781268E-1,1.450804919E-1
1.628433446E1,1.713477075E-1,-5.311473012E-1,2.009746730E-1
1.629433446E1,1.655444801E-1,-4.256203473E-1,2.264782935E-1
1.630433446E1,2.131919712E-1,-2.962696552E-1,2.692388594E-1
1.631433446E1,2.498438805E-1,-2.443460971E-1,2.802344263E-1
1.632433446E1,2.260201424E-1,-2.078468949E-1,2.362521291E-1
1.633433446E1,1.924225539E-1,-1.725694388E-1,1.666134894E-1
1.634433446E1,1.627955884E-1,-1.350012124E-1,6.032294407E-2
1.635433446E1,1.443169117E-1,-1.180497110E-1,-6.780604273E-2
1.636433446E1,1.266018152E-1,-1.169806942E-1,-1.678352207E-1
1.637433446E1,9.330966324E-2,-1.010981947E-1,-2.678644061E-1
1.638433446E1,5.864306539E-2,-5.253441259E-2,-3.364340365E-1
1.639433446E1,2.153299935E-2,1.908953860E-2,-3.952298164E-1
1.640433446E1,2.443460980E-3,1.017090604E-1,-4.051563740E-1
1.641433446E1,-2.260201424E-2,2.182316035E-1,-3.944662213E-1
1.642433446E1,-5.910121277E-2,3.032945991E-1,-3.436116874E-1
1.643433446E1,-1.237002090E-1,3.523165286E-1,-2.806925774E-1
1.644433446E1,-1.957823038E-1,3.286454976E-1,-2.432770878E-1
1.645433446E1,-3.071125150E-1,2.226603776E-1,-2.072360367E-1
1.646433446E1,-4.222606122E-1,7.681630552E-2,-1.528690308E-1
1.647433446E1,-5.167919993E-1,-4.489859566E-2,-1.032362282E-1
1.648433446E1,-5.755877495E-1,-9.651670605E-2,-5.726861581E-2
1.649433446E1,-6.230825782E-1,-7.070764899E-2,-3.313944116E-2
1.650433446E1,-6.456845403E-1,2.871066704E-2,-4.795292020E-2
1.651433446E1,-6.382014751E-1,1.050688252E-1,-4.321871698E-2
1.652433446E1,-5.943718553E-1,1.751656085E-1,-6.414085161E-3
1.653433446E1,-5.175555944E-1,2.400700450E-1,7.330383174E-3
1.654433446E1,-4.201225638E-1,2.698497176E-1,4.123340361E-3
1.655433446E1,-3.326161206E-1,2.910772860E-1,1.313360315E-2
1.656433446E1,-2.328923792E-1,3.304781020E-1,3.680463135E-2
1.657433446E1,-1.539380401E-1,3.202461004E-1,6.169738993E-2
1.658433446E1,-1.033889428E-1,2.739730477E-1,1.021672115E-1
1.659433446E1,-7.192938030E-2,2.350303978E-1,1.218676195E-1
1.660433446E1,-5.039638281E-2,1.876883507E-1,1.415680200E-1
1.661433446E1,-4.948008433E-2,1.597412676E-1,1.696678251E-1
1.662433446E1,-6.307183951E-2,1.539380401E-1,2.049452960E-1
1.663433446E1,-8.765916526E-2,1.601994038E-1,2.461786866E-1
1.664433446E1,-1.133155003E-1,1.785253733E-1,2.851213515E-1
1.665433446E1,-1.317941695E-1,2.115120888E-1,3.263547719E-1
1.666433446E1,-1.391245574E-1,2.443460971E-1,3.543018401E-1
1.667433446E1,-1.475239545E-1,2.976440787E-1,3.761402667E-1
1.668433446E1,-1.485929638E-1,3.268128932E-1,3.772092760E-1
1.669433446E1,-1.498146951E-1,2.916881442E-1,3.590360582E-1
1.670433446E1,-1.426370293E-1,2.188424766E-1,3.274237812E-1
1.671433446E1,-1.244637966E-1,1.058324054E-1,2.680171132E-1
1.672433446E1,-1.049161032E-1,-1.069014193E-3,1.866193265E-1
1.673433446E1,-9.514226019E-2,-7.635815442E-2,1.270599663E-1
1.674433446E1,-1.085812971E-1,-1.780672222E-1,7.956519723E-2
1.675433446E1,-1.211040318E-1,-2.846632004E-1,6.139195710E-2
1.676433446E1,-1.186605766E-1,-3.210096955E-1,5.772676691E-2
1.677433446E1,-8.491026610E-2,-3.248275816E-1,8.842274547E-2
1.678433446E1,-9.773843922E-3,-2.950479090E-1,1.435533315E-1
1.679433446E1,-5.360342562E-2,-1.105666086E-1,7.131851465E-2
1.680433446E1,-6.948592514E-2,6.398813426E-2,1.130100712E-2
1.681433446E1,-3.405573592E-2,1.832595794E-3,-5.787948146E-2
1.682433446E1,4.627304152E-2,-1.916589737E-1,-1.852448881E-1
1.683433446E1,1.377501190E-1,-3.196352422E-1,-3.100140989E-1
1.684433446E1,2.170098722E-1,-3.929390609E-1,-3.947716653E-1
1.685433446E1,2.399173230E-1,-4.657847583E-1,-4.043927789E-1
1.686433446E1,2.029599845E-1,-5.552765131E-1,-3.874412775E-1
1.687433446E1,1.831068546E-1,-5.951354504E-1,-3.546072841E-1
1.688433446E1,1.866193265E-1,-5.539020896E-1,-3.022255898E-1
1.689433446E1,1.864666194E-1,-4.434881806E-1,-2.145664245E-1
1.690433446E1,2.021963894E-1,-3.075706363E-1,-1.134682223E-1
1.691433446E1,2.079996169E-1,-1.534798890E-1,2.153299935E-2
1.692433446E1,2.141082734E-1,4.123340361E-3,1.177442744E-1
1.693433446E1,2.449569702E-1,2.318233550E-1,1.944078654E-1
1.694433446E1,3.040581644E-1,4.581489265E-1,2.139555514E-1
1.695433446E1,3.536909819E-1,6.650795341E-1,1.835650057E-1
1.696433446E1,3.798054755E-1,7.654141784E-1,1.409571618E-1
1.697433446E1,3.865249753E-1,7.944302559E-1,7.880161703E-2
1.698433446E1,3.743076921E-1,7.180721164E-1,2.764165215E-2
1.699433446E1,3.521638215E-1,6.065891981E-1,5.650503561E-3
1.700433446E1,3.139847219E-1,4.225660264E-1,-3.207042441E-2
1.701433446E1,2.864958048E-1,2.301434875E-1,-3.817907721E-2
1.702433446E1,2.809980214E-1,6.520986557E-2,-3.680463135E-2
1.703433446E1,2.952006161E-1,-4.276056588E-2,-5.115996301E-2
1.704433446E1,3.411682248E-1,-1.351539344E-1,-6.536258012E-2
1.705433446E1,3.944662213E-1,-1.815796942E-1,-6.139195710E-2
1.706433446E1,4.430300295E-1,-1.708895564E-1,-4.657847434E-2
1.707433446E1,4.735732675E-1,-1.287398487E-1,-3.543018550E-2
1.708433446E1,4.957171381E-1,-6.337726861E-2,-3.176499158E-2
1.709433446E1,4.949535728E-1,2.031126991E-2,-5.253441259E-2
1.710433446E1,4.674646258E-1,1.172861308E-1,-7.712173462E-2
1.711433446E1,4.314235747E-1,1.782199293E-1,-9.453139454E-2
1.712433446E1,3.733913898E-1,2.306016237E-1,-1.168279797E-1
1.713433446E1,3.042109013E-1,2.528982162E-1,-1.366810948E-1
1.714433446E1,2.422080636E-1,2.483167201E-1,-1.516472995E-1
1.715433446E1,1.730275750E-1,2.160935849E-1,-1.702786833E-1
1.716433446E1,1.072068512E-1,1.571450830E-1,-1.852448881E-1
1.717433446E1,4.978551716E-2,8.109235764E-2,-1.988366395E-1
1.718433446E1,7.024950348E-3,2.321287990E-2,-2.063197345E-1
1.719433446E1,-3.451388702E-2,-3.604105115E-2,-2.138028294E-1
1.720433446E1,-6.017022580E-2,-6.856962293E-2,-2.176207453E-1
1.721433446E1,-7.101308554E-2,-7.819075137E-2,-2.249511331E-1
1.722433446E1,-7.330382615E-2,-7.086037099E-2,-2.408336252E-1
1.723433446E1,-6.215553731E-2,-6.612616032E-2,-2.687807083E-1
1.724433446E1,-2.672535367E-2,-5.925392732E-2,-3.063489199E-1
1.725433446E1,8.704829961E-3,-5.467243865E-2,-3.318525553E-1
1.726433446E1,4.902193695E-2,-5.971207842E-2,-3.498730659E-1
1.727433446E1,9.147707373E-2,-7.452555746E-2,-3.495676219E-1
1.728433446E1,1.508837193E-1,-8.949175477E-2,-3.187189400E-1
1.729433446E1,1.989893466E-1,-1.127046347E-1,-2.696970105E-1
1.730433446E1,2.469422817E-1,-1.783726513E-1,-1.937969923E-1
1.731433446E1,2.619084716E-1,-3.080287874E-1,-1.412625909E-1
1.732433446E1,2.661845386E-1,-4.364632070E-1,-1.154535338E-1
1.733433446E1,2.814561725E-1,-5.529857874E-1,-1.151480973E-1
1.734433446E1,3.481931984E-1,-6.369797587E-1,-1.379028261E-1
1.735433446E1,3.793473244E-1,-4.202753007E-1,-1.148426682E-1
1.736433446E1,3.579670191E-1,-1.982257664E-1,-6.276640296E-2
1.737433446E1,3.243694305E-1,-2.038762718E-1,4.673119262E-2
1.738433446E1,2.002110779E-1,-3.871358633E-1,1.498146951E-1
1.739433446E1,7.406741381E-2,-4.554000497E-1,2.490803003E-1
1.740433446E1,2.886338346E-2,-3.882048726E-1,3.400992155E-1
1.741433446E1,-4.123340361E-3,-2.327396572E-1,4.677700698E-1
1.742433446E1,-9.162978269E-3,-1.331686229E-1,5.432119370E-1
1.743433446E1,-4.535674304E-2,-6.872233748E-2,5.319108963E-1
1.744433446E1,-9.224065393E-2,-6.719517522E-3,4.900666475E-1
1.745433446E1,-1.533271819E-1,5.161811411E-2,3.715587854E-1
1.746433446E1,-1.766927689E-1,8.307767659E-2,2.312124968E-1
1.747433446E1,-1.831068546E-1,6.108652428E-2,8.613199741E-2
1.748433446E1,-1.716531366E-1,2.336559631E-2,-2.336559631E-2
1.749433446E1,-1.551597714E-1,-2.443460980E-3,-1.389718503E-1
1.750433446E1,-1.290452778E-1,3.604105115E-2,-2.241875380E-1
1.751433446E1,-1.065959856E-1,9.529497474E-2,-2.729040384E-1
1.752433446E1,-8.536841720E-2,1.896736622E-1,-3.034473062E-1
1.753433446E1,-8.109235764E-2,3.144428730E-1,-3.119994104E-1
1.754433446E1,-9.789115191E-2,4.127921760E-1,-2.890919745E-1
1.755433446E1,-1.394299865E-1,4.445571899E-1,-2.441933751E-1
1.756433446E1,-2.420553565E-1,4.405865669E-1,-1.656972021E-1
1.757433446E1,-3.827070892E-1,4.014911950E-1,-6.887505949E-2
1.758433446E1,-5.137376785E-1,3.055853248E-1,2.428189293E-2
1.759433446E1,-6.056728959E-1,2.105957866E-1,8.842274547E-2
1.760433446E1,-6.866125464E-1,1.250746548E-1,1.490511149E-1
1.761433446E1,-7.246388793E-1,1.059851199E-1,1.756237596E-1
1.762433446E1,-7.454082966E-1,9.162978828E-2,1.817324162E-1
1.763433446E1,-7.487680912E-1,9.514226019E-2,1.475239545E-1
1.764433446E1,-7.218900323E-1,1.423316002E-1,1.427897513E-1
1.765433446E1,-6.450737119E-1,1.962404549E-1,1.467603743E-1
1.766433446E1,-5.633704662E-1,2.284636050E-1,1.325577646E-1
1.767433446E1,-4.315762818E-1,2.736676335E-1,9.544769675E-2
1.768433446E1,-3.000875413E-1,2.813034356E-1,7.910704613E-2
1.769433446E1,-1.798998117E-1,2.623666227E-1,9.208793938E-2
1.770433446E1,-1.049161032E-1,2.110539377E-1,1.120937690E-1
1.771433446E1,-3.970624134E-2,1.281289905E-1,1.368338168E-1
1.772433446E1,1.343903504E-2,7.330382615E-2,1.579086632E-1
1.773433446E1,4.367686436E-2,4.291328415E-2,1.751656085E-1
1.774433446E1,4.596760869E-2,3.680463135E-2,1.996002197E-1
1.775433446E1,5.192354694E-2,4.535674304E-2,2.264782935E-1
1.776433446E1,5.558873713E-2,8.170322329E-2,2.348776907E-1
1.777433446E1,4.841107130E-2,1.337794960E-1,2.422080636E-1
1.778433446E1,4.520402849E-2,2.344195396E-1,2.469422817E-1
1.779433446E1,4.688390717E-2,3.228422701E-1,2.321287990E-1
1.780433446E1,5.665775016E-2,3.265074790E-1,2.151772827E-1
1.781433446E1,7.254024595E-2,2.826778889E-1,1.921171248E-1
1.782433446E1,7.360926270E-2,1.783726513E-1,1.411098689E-1
1.783433446E1,2.351831272E-2,3.558290005E-2,9.468411654E-2
1.784433446E1,-5.864306539E-2,-1.456913650E-1,8.353582025E-2
1.785433446E1,-1.262963861E-1,-3.075706363E-1,1.052215397E-1
1.786433446E1,-1.954768747E-1,-4.828889668E-1,1.635591686E-1
1.787433446E1,-2.460259795E-1,-5.769622326E-1,2.315179259E-1
1.788433446E1,-2.620611787E-1,-5.439754725E-1,2.826778889E-1
1.789433446E1,-2.405281961E-1,-4.567744732E-1,3.935499489E-1
1.790433446E1,-3.213151097E-1,-2.719877362E-1,3.941608071E-1
1.791433446E1,-4.645630121E-1,-5.070181563E-2,2.942843437E-1
1.792433446E1,-5.076290369E-1,4.046982154E-2,2.379320115E-1
1.793433446E1,-4.537201524E-1,-7.330383174E-3,1.505782902E-1
1.794433446E1,-3.257438838E-1,-1.331686229E-1,1.496619824E-2
1.795433446E1,-2.522873580E-1,-2.246456891E-1,-1.101084575E-1
1.796433446E1,-2.571742535E-1,-3.058907688E-1,-1.623374373E-1
1.797433446E1,-2.793181241E-1,-4.477642179E-1,-2.073887438E-1
1.798433446E1,-2.296853364E-1,-5.293147564E-1,-2.302961946E-1
1.799433446E1,-1.589776874E-1,-4.885394871E-1,-2.212859392E-1
1.800433446E1,-5.421429127E-2,-3.824016452E-1,-1.941024363E-1
1.801433446E1,6.017022580E-2,-3.115412891E-1,-1.447750628E-1
1.802433446E1,1.559233516E-1,-2.380847335E-1,-5.299255997E-2
1.803433446E1,2.067778856E-1,-1.340849251E-1,3.497203439E-2
1.804433446E1,2.591595948E-1,3.772092983E-2,1.350012124E-1
1.805433446E1,2.921462953E-1,1.782199293E-1,2.044871449E-1
1.806433446E1,3.249803185E-1,2.629774809E-1,2.362521291E-1
1.807433446E1,3.336851299E-1,2.932153046E-1,2.277000248E-1
1.808433446E1,3.181080818E-1,3.054326177E-1,2.118175179E-1
1.809433446E1,3.058907688E-1,2.533563673E-1,1.934915632E-1
1.810433446E1,3.167336285E-1,1.744020283E-1,1.510364264E-1
1.811433446E1,3.313944042E-1,1.185078546E-1,1.000291854E-1
1.812433446E1,3.718642294E-1,6.108652428E-2,2.351831272E-2
1.813433446E1,4.366159439E-1,9.773843922E-3,-5.894849449E-2
1.814433446E1,5.036584139E-1,-2.229658142E-2,-1.169806942E-1
1.815433446E1,5.937610269E-1,-5.085453019E-2,-1.518000066E-1
1.816433446E1,6.837109327E-1,-5.742133409E-2,-1.537853181E-1
1.817433446E1,7.435756922E-1,-2.993239649E-2,-1.669189334E-1
1.818433446E1,7.825183868E-1,-8.399397135E-3,-1.800525337E-1
1.819433446E1,7.985535860E-1,2.290744567E-3,-1.970040351E-1
1.820433446E1,7.864890099E-1,7.177666761E-3,-2.141082734E-1
1.821433446E1,7.403686643E-1,1.970040426E-2,-2.266310006E-1
1.822433446E1,6.954700947E-1,3.451388702E-2,-2.318233550E-1
1.823433446E1,6.140722632E-1,5.192354694E-2,-2.359467000E-1
1.824433446E1,5.291619897E-1,6.704246253E-2,-2.449569702E-1
1.825433446E1,4.550946057E-1,7.467827946E-2,-2.515237629E-1
1.826433446E1,3.627012372E-1,7.162395120E-2,-2.678644061E-1
1.827433446E1,2.776382565E-1,5.528330430E-2,-2.816088796E-1
1.828433446E1,1.936442852E-1,3.268129006E-2,-2.869539559E-1
1.829433446E1,1.412625909E-1,1.970040426E-2,-2.884811163E-1
1.830433446E1,8.781187981E-2,1.282817032E-2,-2.875648141E-1
1.831433446E1,5.497787148E-2,1.298088674E-2,-2.877175212E-1
1.832433446E1,3.680463135E-2,1.924225502E-2,-3.098613918E-1
1.833433446E1,2.977968007E-2,3.375030309E-2,-3.414736688E-1
1.834433446E1,2.901609987E-2,5.787948146E-2,-3.952298164E-1
1.835433446E1,2.092213556E-2,6.994406879E-2,-4.427245855E-1
1.836433446E1,7.635815535E-3,5.910121277E-2,-4.647157490E-1
1.837433446E1,-4.734205548E-3,1.069014147E-2,-4.622722864E-1
1.838433446E1,2.641992271E-2,-1.847867295E-2,-4.219551682E-1
1.839433446E1,8.200865984E-2,-1.389718428E-2,-3.460551500E-1
1.840433446E1,1.252273768E-1,-1.771509275E-2,-2.678644061E-1
1.841433446E1,1.536326110E-1,-8.811730891E-2,-1.847867370E-1
1.842433446E1,1.576032341E-1,-2.079996169E-1,-1.175915599E-1
1.843433446E1,1.449277848E-1,-2.635883391E-1,-6.750060618E-2
1.844433446E1,1.469130963E-1,-3.495676219E-1,-4.184427112E-2
1.845433446E1,2.390010208E-1,-3.804163337E-1,-2.183843218E-2
1.846433446E1,2.490803003E-1,-1.864666194E-1,4.505131021E-2
1.847433446E1,1.963931769E-1,-1.194241568E-1,1.458440721E-1
1.848433446E1,1.369865239E-1,-2.655736506E-1,2.199114859E-1
1.849433446E1,-1.481348183E-2,-4.668537676E-1,2.667953968E-1
1.850433446E1,-1.056796908E-1,-5.328271985E-1,3.602577746E-1
1.851433446E1,-1.386664063E-1,-4.767803252E-1,4.392121136E-1
1.852433446E1,-1.278235465E-1,-3.918700516E-1,5.025894046E-1
1.853433446E1,-5.604688451E-2,-3.559817076E-1,5.163338780E-1
1.854433446E1,5.192354787E-3,-3.552181423E-1,4.557054639E-1
1.855433446E1,1.924225502E-2,-2.887865305E-1,3.729332387E-1
1.856433446E1,2.550362423E-2,-1.666134894E-1,2.338086665E-1
1.857433446E1,9.621127509E-3,-8.185594529E-2,9.712757170E-2
1.858433446E1,-3.329215571E-2,-6.475171447E-2,-2.000583708E-2
1.859433446E1,-9.010262042E-2,-8.032877743E-2,-1.007927656E-1
1.860433446E1,-1.601994038E-1,-8.353582025E-2,-1.621847153E-1
1.861433446E1,-1.988366395E-1,-3.375030309E-2,-1.867720485E-1
1.862433446E1,-2.070833147E-1,1.725694351E-2,-2.002110779E-1
1.863433446E1,-1.898263693E-1,8.384125680E-2,-1.893682331E-1
1.864433446E1,-1.701259762E-1,1.831068546E-1,-1.612684280E-1
1.865433446E1,-1.505782902E-1,3.019201458E-1,-9.666942805E-2
1.866433446E1,-1.774563491E-1,3.578143120E-1,-4.092797264E-2
1.867433446E1,-2.617557645E-1,2.965750694E-1,-1.939497143E-2
1.868433446E1,-3.778201640E-1,1.276708394E-1,-3.313944116E-2
1.869433446E1,-5.036584139E-1,-7.635815442E-2,-7.269296050E-2
1.870433446E1,-5.952881575E-1,-2.043344229E-1,-9.254608303E-2
1.871433446E1,-6.998988390E-1,-2.570215464E-1,-1.125519201E-1
1.872433446E1,-7.834346890E-1,-1.971567571E-1,-1.374446750E-1
1.873433446E1,-8.145887852E-1,-7.208210230E-2,-1.389718503E-1
1.874433446E1,-7.980954647E-1,5.390885845E-2,-1.524108797E-1
1.875433446E1,-7.284567952E-1,1.637118906E-1,-1.534798890E-1
1.876433446E1,-6.278167367E-1,2.067778856E-1,-7.864890248E-2
1.877433446E1,-5.392413139E-1,2.208277881E-1,-3.054326214E-2
1.878433446E1,-4.178318381E-1,2.443460971E-1,5.497787148E-3
1.879433446E1,-2.974913716E-1,2.654209435E-1,4.138612002E-2
1.880433446E1,-2.017382532E-1,2.648100853E-1,7.116580009E-2
1.881433446E1,-1.386664063E-1,2.561052442E-1,1.130100712E-1
1.882433446E1,-8.216137439E-2,1.890627891E-1,1.609629989E-1
1.883433446E1,-5.711590126E-2,1.017090604E-1,1.904372424E-1
1.884433446E1,-4.780020565E-2,4.230241850E-2,2.148718536E-1
1.885433446E1,-4.795292020E-2,2.412917651E-2,2.405281961E-1
1.886433446E1,-4.337143153E-2,1.450804994E-2,2.625193298E-1
1.887433446E1,-3.726277873E-2,2.901609987E-2,2.784018219E-1
1.888433446E1,-3.481931984E-2,5.574145541E-2,3.002402782E-1
1.889433446E1,-3.604105115E-2,1.151480973E-1,3.245221674E-1
1.890433446E1,-3.573561832E-2,1.915062517E-1,3.306308091E-1
1.891433446E1,-2.580905706E-2,2.556470931E-1,3.306308091E-1
1.892433446E1,-1.527163113E-4,2.651155293E-1,3.136793077E-1
1.893433446E1,2.809980139E-2,2.272418737E-1,2.602286041E-1
1.894433446E1,2.336559631E-2,1.605048478E-1,1.798998117E-1
1.895433446E1,-3.711006418E-2,8.200865984E-2,9.056077152E-2
1.896433446E1,-1.017090604E-1,-1.450804994E-2,4.780020565E-2
1.897433446E1,-1.701259762E-1,-1.522581577E-1,2.916881628E-2
1.898433446E1,-2.206750661E-1,-2.768746614E-1,4.367686436E-2
1.899433446E1,-2.503020465E-1,-3.637702465E-1,7.162395120E-2
1.900433446E1,-2.935207486E-1,-4.386012554E-1,1.227839142E-1
1.901433446E1,-3.292563558E-1,-4.395175576E-1,1.944078654E-1
1.902433446E1,-2.985603809E-1,-4.770857692E-1,3.298672438E-1
1.903433446E1,-3.530801237E-1,-3.408628106E-1,3.793473244E-1
1.904433446E1,-4.841107130E-1,-4.444044828E-2,3.283400834E-1
1.905433446E1,-5.626068711E-1,1.209513173E-1,3.277291954E-1
1.906433446E1,-5.380195379E-1,6.612616032E-2,2.571742535E-1
1.907433446E1,-4.743368626E-1,1.527163113E-4,1.492038369E-1
1.908433446E1,-3.969096839E-1,-2.244929783E-2,5.803219974E-3
1.909433446E1,-3.356704414E-1,-7.635815442E-2,-9.605856240E-2
1.910433446E1,-3.127630055E-1,-1.977676302E-1,-1.495092660E-1
1.911433446E1,-2.762638032E-1,-2.756529450E-1,-1.966986060E-1
1.912433446E1,-1.606575549E-1,-2.993239760E-1,-2.215913683E-1
1.913433446E1,-4.367686436E-2,-2.335032374E-1,-2.270891517E-1
1.914433446E1,6.230825558E-2,-1.601994038E-1,-2.205223590E-1
1.915433446E1,1.913535446E-1,-6.765332818E-2,-1.698205322E-1
1.916433446E1,3.031418920E-1,2.871066704E-2,-9.865473956E-2
1.917433446E1,3.906483352E-1,1.542434692E-1,-1.664607786E-2
1.918433446E1,4.418082833E-1,2.751947939E-1,3.833179548E-2
1.919433446E1,4.735732675E-1,3.866777122E-1,8.827003092E-2
1.920433446E1,4.529565871E-1,4.570799172E-1,1.368338168E-1
1.921433446E1,4.103487432E-1,5.071708560E-1,1.621847153E-1
1.922433446E1,3.787364662E-1,5.328271985E-1,1.679879427E-1
1.923433446E1,3.336851299E-1,5.148066878E-1,1.666134894E-1
1.924433446E1,2.959642112E-1,4.338670373E-1,1.261436790E-1
1.925433446E1,2.825251818E-1,3.430008292E-1,8.231408894E-2
1.926433446E1,2.790127099E-1,2.228130996E-1,-1.863138936E-2
1.927433446E1,2.997821271E-1,1.220203340E-1,-9.758572280E-2
1.928433446E1,3.423899710E-1,6.841690838E-2,-1.302670091E-1
1.929433446E1,3.860668242E-1,5.604688451E-2,-1.311833113E-1
1.930433446E1,4.468479156E-1,4.948008433E-2,-1.284344196E-1
1.931433446E1,5.027421117E-1,4.673119262E-2,-1.281289905E-1
1.932433446E1,5.539020896E-1,6.215553731E-2,-1.339322031E-1
1.933433446E1,5.868887901E-1,7.406741381E-2,-1.409571618E-1
1.934433446E1,6.027712822E-1,9.208793938E-2,-1.519527286E-1
1.935433446E1,5.847507715E-1,1.030835137E-1,-1.629483104E-1
1.936433446E1,5.361869931E-1,1.178969890E-1,-1.791362315E-1
1.937433446E1,4.889976382E-1,1.279762685E-1,-2.002110779E-1
1.938433446E1,4.259257913E-1,1.282816976E-1,-2.223549485E-1
1.939433446E1,3.553708494E-1,1.069014147E-1,-2.350303978E-1
1.940433446E1,3.054326177E-1,6.841690838E-2,-2.449569702E-1
1.941433446E1,2.359467000E-1,7.024950348E-3,-2.623666227E-1
1.942433446E1,1.713477075E-1,-4.581489414E-2,-2.761110961E-1
1.943433446E1,1.189660057E-1,-9.162978828E-2,-2.811507285E-1
1.944433446E1,9.224065393E-2,-1.120937690E-1,-2.898555696E-1
1.945433446E1,7.147123665E-2,-1.240056455E-1,-3.020728528E-1
1.946433446E1,6.444628537E-2,-1.033889428E-1,-3.216205537E-1
1.947433446E1,5.986479297E-2,-4.642575979E-2,-3.376557529E-1
1.948433446E1,5.054909736E-2,2.138028294E-2,-3.559817076E-1
1.949433446E1,5.207626149E-2,1.050688252E-1,-3.597996235E-1
1.950433446E1,4.001167417E-2,1.693623960E-1,-3.330742717E-1
1.951433446E1,1.420261711E-2,1.721112877E-1,-2.918408811E-1
1.952433446E1,-1.924225502E-2,1.444696337E-1,-2.090686262E-1
1.953433446E1,-3.207042441E-2,1.459967941E-1,-9.834930301E-2
1.954433446E1,-2.779436857E-2,1.351539344E-1,1.679879380E-3
1.955433446E1,-3.207042441E-2,5.039638281E-2,5.054909736E-2
1.956433446E1,-4.153883830E-2,-1.348485053E-1,7.254024595E-2
1.957433446E1,-3.252857551E-2,-3.459024429E-1,6.429356337E-2
1.958433446E1,7.330383174E-3,-4.867068827E-1,1.847867295E-2
1.959433446E1,6.948592514E-2,-5.671883821E-1,-4.810563847E-2
1.960433446E1,2.283108830E-1,-5.357288122E-1,-1.569923609E-1
1.961433446E1,4.170682430E-1,-2.570215464E-1,-2.086104751E-1
1.962433446E1,5.381723046E-1,-5.421429127E-2,-2.130392492E-1
1.963433446E1,6.120869517E-1,-9.468411654E-2,-1.821905524E-1
1.964433446E1,5.465716720E-1,-2.916881442E-1,-1.505782902E-1
1.965433446E1,4.535674453E-1,-3.782783151E-1,-1.119410545E-1
1.966433446E1,3.973678350E-1,-3.414736688E-1,-4.291328415E-2
1.967433446E1,3.729332387E-1,-2.272418737E-1,4.581489414E-2
1.968433446E1,3.523165286E-1,-1.240056455E-1,1.174388453E-1
1.969433446E1,2.952006161E-1,-2.535090782E-2,1.681406647E-1
1.970433446E1,2.319760770E-1,4.413501546E-2,1.970040351E-1
1.971433446E1,1.278235465E-1,8.231408894E-2,1.646281779E-1
1.972433446E1,3.084869497E-2,4.520402849E-2,1.007927656E-1
1.973433446E1,-8.124507964E-2,-6.566801667E-2,4.673119262E-2
1.974433446E1,-1.760819107E-1,-1.475239545E-1,1.206458826E-2
1.975433446E1,-2.562579811E-1,-1.918116808E-1,-3.207042441E-2
1.976433446E1,-2.997821271E-1,-1.624901593E-1,-6.658431143E-2
1.977433446E1,-3.017674387E-1,-8.857546002E-2,-9.101892263E-2
1.978433446E1,-2.730567753E-1,5.543602258E-2,-1.069014147E-1
1.979433446E1,-2.419026345E-1,2.115120888E-1,-1.336267740E-1
1.980433446E1,-2.330450863E-1,3.048217595E-1,-1.362229437E-1
1.981433446E1,-2.732094824E-1,3.243694305E-1,-1.266018152E-1
1.982433446E1,-3.512475193E-1,2.788599730E-1,-1.160643995E-1
1.983433446E1,-4.662429094E-1,1.548543423E-1,-8.979719132E-2
1.984433446E1,-6.042984724E-1,5.406157300E-2,-3.924809024E-2
1.985433446E1,-7.044803500E-1,-4.734205548E-3,-5.650503561E-3
1.986433446E1,-8.167268038E-1,-6.337726861E-2,1.695151068E-2
