"Time (s)","Acceleration x (m/s^2)","Acceleration y (m/s^2)","Acceleration z (m/s^2)"
2.331454200E-2,-9.536594391E0,-2.249253243E-1,3.798007727E0
3.331454200E-2,-9.353543282E0,-3.254238665E-1,3.666402578E0
4.331454200E-2,-8.894720078E0,-2.524427772E-1,3.707080364E0
5.331454200E-2,-8.754141808E0,-1.704886109E-1,3.435495138E0
6.331454200E-2,-8.834300995E0,-8.973085135E-2,3.209373474E0
7.331454200E-2,-8.906085968E0,-4.666004330E-2,3.227917671E0
8.331454200E-2,-8.919246674E0,-7.537391037E-2,3.113062143E0
9.331454200E-2,-8.929415703E0,-5.144568533E-2,3.189632654E0
1.033145420E-1,-8.987442017E0,-2.751746029E-2,3.212962627E0
1.133145420E-1,-9.090931892E0,-3.589233849E-3,3.001796007E0
1.233145420E-1,-9.098110199E0,-1.046859920E-1,3.375076294E0
1.333145420E-1,-9.014361382E0,-1.663011760E-1,3.677170277E0
1.433145420E-1,-9.146564484E0,-1.668993831E-1,3.470789194E0
1.533145420E-1,-9.185447693E0,-1.381855011E-1,3.546761274E0
1.633145420E-1,-9.153144836E0,-1.477568001E-1,3.642474174E0
1.733145420E-1,-9.094520569E0,-9.032905847E-2,3.494717360E0
1.833145420E-1,-9.012566566E0,-1.040877849E-1,3.452244759E0
1.933145420E-1,-9.031708717E0,-1.184447184E-1,3.404388428E0
2.033145420E-1,-8.992825508E0,-1.280160099E-1,3.361915827E0
2.133145420E-1,-8.931808472E0,-1.663011760E-1,3.510270834E0
2.233145420E-1,-8.959924698E0,-1.471585929E-1,3.419343472E0
2.333145420E-1,-9.055637360E0,-1.477568001E-1,3.452244759E0
2.433145420E-1,-9.084949493E0,-1.477568001E-1,3.499503136E0
2.533145420E-1,-9.125627518E0,-1.046859920E-1,3.212364435E0
2.633145420E-1,-9.249456406E0,-7.597211748E-2,3.115455151E0
2.733145420E-1,-9.188439369E0,-1.142572835E-1,3.259622574E0
2.833145420E-1,-9.018548965E0,-1.280160099E-1,3.600599766E0
2.933145420E-1,-8.919844627E0,-1.471585929E-1,3.811168194E0
3.033145420E-1,-8.885149002E0,-6.580262631E-2,3.634099483E0
3.133145420E-1,-8.909674644E0,-8.015955985E-2,3.696312666E0
3.233145420E-1,-9.060422897E0,-1.668993831E-1,3.466601849E0
3.333145420E-1,-8.944969177E0,-1.758724600E-1,3.973880291E0
3.433145420E-1,-8.976674080E0,-1.423729509E-1,3.734597921E0
3.533145420E-1,-9.032905579E0,-2.003988922E-1,3.634099483E0
3.633145420E-1,-9.118449211E0,-2.003988922E-1,3.533600807E0
3.733145420E-1,-9.156734467E0,-2.099701911E-1,3.494717360E0
3.833145420E-1,-9.171091080E0,-2.338984162E-1,3.500101328E0
3.933145420E-1,-9.190233231E0,-2.147558331E-1,3.523431301E0
4.033145420E-1,-9.185447693E0,-1.908276081E-1,3.518645763E0
4.133145420E-1,-9.147761345E0,-1.190429255E-1,3.551547050E0
4.233145420E-1,-9.147761345E0,-1.046859920E-1,3.575475216E0
4.333145420E-1,-9.119047165E0,-7.118647546E-2,3.570689678E0
4.433145420E-1,-9.085547447E0,-6.161518395E-2,3.585046530E0
4.533145420E-1,-9.071190834E0,-3.290131316E-2,3.570689678E0
4.633145420E-1,-9.061619759E0,-4.247260094E-2,3.575475216E0
4.733145420E-1,-9.071190834E0,-1.375873014E-2,3.546761274E0
4.833145420E-1,-9.090332985E0,5.982056609E-4,3.503690481E0
4.933145420E-1,-9.113663673E0,-8.973085321E-3,3.474378586E0
5.033145420E-1,-9.114261627E0,-1.854437590E-2,3.522234917E0
5.133145420E-1,-9.094520569E0,-4.247260094E-2,3.498904943E0
5.233145420E-1,-9.128020287E0,-6.161518395E-2,3.498904943E0
5.333145420E-1,-9.104091644E0,-8.075776696E-2,3.498904943E0
5.433145420E-1,-9.094520569E0,-6.161518395E-2,3.484548092E0
5.533145420E-1,-9.090332985E0,-1.316052489E-2,3.532404423E0
5.633145420E-1,-9.061619759E0,1.196411322E-3,3.589233875E0
5.733145420E-1,-9.028717995E0,4.905286431E-2,3.579662561E0
5.833145420E-1,-9.009575844E0,4.426721856E-2,3.632304668E0
5.933145420E-1,-8.990432739E0,2.512463741E-2,3.618546009E0
6.033145420E-1,-8.980861664E0,1.555334684E-2,3.594617844E0
6.133145420E-1,-8.995218277E0,2.991028316E-2,3.594617844E0
6.233145420E-1,-8.980861664E0,-2.751746029E-2,3.595216036E0
6.333145420E-1,-8.980861664E0,-8.374879137E-3,3.580859184E0
6.433145420E-1,-8.966505051E0,-6.580262631E-2,3.643072367E0
6.533145420E-1,-8.976076126E0,-8.494520187E-2,3.676572084E0
6.633145420E-1,-9.014361382E0,2.991028316E-2,3.642474174E0
6.733145420E-1,-9.081359863E0,1.830509305E-1,3.544966698E0
6.833145420E-1,-9.066405296E0,9.690931439E-2,3.503092289E0
6.933145420E-1,-9.067003250E0,1.686939895E-1,3.612564087E0
7.033145420E-1,-9.038887978E0,1.495514214E-1,3.641277790E0
7.133145420E-1,-9.019744873E0,1.495514214E-1,3.660420418E0
7.233145420E-1,-9.043074608E0,9.212367237E-2,3.622733593E0
7.333145420E-1,-9.043074608E0,3.469592705E-2,3.575475216E0
7.433145420E-1,-9.086145401E0,-4.247260094E-2,3.618546009E0
7.533145420E-1,-9.095118523E0,-1.094716340E-1,3.571287870E0
7.633145420E-1,-9.051449776E0,-2.147558331E-1,3.519842148E0
7.733145420E-1,-9.028120041E0,-2.291127741E-1,3.582055569E0
7.833145420E-1,-8.985049248E0,-1.423729509E-1,3.610171080E0
7.933145420E-1,-8.952147484E0,-9.930214286E-2,3.624528170E0
8.033145420E-1,-8.956933022E0,-1.136590764E-1,3.677170277E0
8.133145420E-1,-8.971290588E0,-5.623133108E-2,3.667000771E0
8.233145420E-1,-9.014959335E0,-4.666004330E-2,3.681357622E0
8.333145420E-1,-9.034101486E0,-2.273181453E-2,3.685544968E0
8.433145420E-1,-9.053244591E0,1.076770201E-2,3.661018610E0
8.533145420E-1,-9.104690552E0,1.016949583E-2,3.579662561E0
8.633145420E-1,-9.110074043E0,1.016949583E-2,3.589233875E0
8.733145420E-1,-9.128020287E0,-8.973085321E-3,3.512663603E0
8.833145420E-1,-9.118449211E0,-4.725824669E-2,3.508476257E0
8.933145420E-1,-9.159725189E0,-7.118647546E-2,3.283550978E0
9.033145420E-1,-9.123832703E0,-1.381855011E-1,3.590430260E0
9.133145420E-1,-9.165108681E0,-1.429711580E-1,3.379862070E0
9.233145420E-1,-9.160921097E0,-1.716850251E-1,3.422932863E0
9.333145420E-1,-9.178867340E0,-2.243271172E-1,3.323032379E0
9.433145420E-1,-9.198608398E0,-1.716850251E-1,3.355933666E0
9.533145420E-1,-9.203991890E0,-1.381855011E-1,3.417548895E0
9.633145420E-1,-9.203991890E0,-1.333998591E-1,3.427120209E0
9.733145420E-1,-9.184849739E0,-8.554340899E-2,3.460021496E0
9.833145420E-1,-9.184849739E0,-5.682953820E-2,3.445664644E0
9.933145420E-1,-9.180064201E0,-8.973085321E-3,3.373879910E0
1.003314542E0,-9.184849739E0,6.759724021E-2,3.349353552E0
1.013314542E0,-9.208778381E0,1.106680483E-1,3.353540897E0
1.023314542E0,-9.223134995E0,1.250249892E-1,3.363112211E0
1.033314542E0,-9.223134995E0,1.154536903E-1,3.353540897E0
1.043314542E0,-9.256634712E0,1.298106313E-1,3.357728481E0
1.053314542E0,-9.279964447E0,7.238288224E-2,3.334398270E0
1.063314542E0,-9.303893089E0,5.802594870E-2,3.276970625E0
1.073314542E0,-9.288937569E0,3.409772366E-2,3.276970625E0
1.083314542E0,-9.246464729E0,-1.375873014E-2,3.334996462E0
1.093314542E0,-9.203991890E0,-3.768695518E-2,3.393022537E0
1.103314542E0,-9.128020287E0,-5.682953820E-2,3.470191002E0
1.113314542E0,-9.041878700E0,-4.187439755E-2,3.504288673E0
1.123314542E0,-8.965906143E0,-5.623133108E-2,3.519243956E0
1.133314542E0,-8.941379547E0,-2.273181453E-2,3.495315790E0
1.143314542E0,-8.913264275E0,-3.589233849E-3,3.514458179E0
1.153314542E0,-8.937192917E0,5.383851007E-2,3.504288673E0
1.163314542E0,-8.946763992E0,8.255238086E-2,3.513261795E0
1.173314542E0,-8.995218277E0,1.064806059E-1,3.560520172E0
1.183314542E0,-9.028717995E0,1.447657645E-1,3.559921980E0
1.193314542E0,-9.062217712E0,1.782652885E-1,3.569493294E0
1.203314542E0,-9.086145401E0,1.974078715E-1,3.540181160E0
1.213314542E0,-9.052047729E0,1.782652885E-1,3.512065411E0
1.223314542E0,-9.032905579E0,1.782652885E-1,3.507279873E0
1.233314542E0,-9.038289070E0,1.160518974E-1,3.550948858E0
1.243314542E0,-9.018548965E0,1.112662554E-1,3.531806231E0
1.253314542E0,-9.052646637E0,1.016949639E-1,3.579662561E0
1.263314542E0,-9.038289070E0,1.016949639E-1,3.603590965E0
1.273314542E0,-9.057432175E0,9.212367237E-2,3.603590965E0
1.283314542E0,-9.062217712E0,1.112662554E-1,3.607778311E0
1.293314542E0,-9.062217712E0,1.351944804E-1,3.612564087E0
1.303314542E0,-9.057432175E0,1.351944804E-1,3.612564087E0
1.313314542E0,-9.081359863E0,1.351944804E-1,3.617349625E0
1.323314542E0,-9.090931892E0,1.298106313E-1,3.593421459E0
1.333314542E0,-9.105288506E0,8.673982322E-2,3.574278831E0
1.343314542E0,-9.119645119E0,7.238288224E-2,3.593421459E0
1.353314542E0,-9.134002686E0,9.152546525E-2,3.583850145E0
1.363314542E0,-9.123832703E0,9.152546525E-2,3.540779352E0
1.373314542E0,-9.104690552E0,9.631111473E-2,3.550350666E0
1.383314542E0,-9.062217712E0,1.208375469E-1,3.588635683E0
1.393314542E0,-9.005388260E0,1.064806059E-1,3.699303865E0
1.403314542E0,-8.996415138E0,1.351944804E-1,3.732205153E0
1.413314542E0,-9.010771751E0,1.878365725E-1,3.713062525E0
1.423314542E0,-9.048459053E0,1.878365725E-1,3.659822226E0
1.433314542E0,-9.091529846E0,1.734796464E-1,3.635894060E0
1.443314542E0,-9.077172279E0,2.021935135E-1,3.607180119E0
1.453314542E0,-9.052646637E0,1.064806059E-1,3.565305710E0
1.463314542E0,-9.077172279E0,9.690931439E-2,3.641277790E0
1.473314542E0,-9.081958771E0,6.759724021E-2,3.656233072E0
1.483314542E0,-9.038289070E0,-9.032905847E-2,3.609572887E0
1.493314542E0,-9.013762474E0,-7.058826834E-2,3.595216036E0
1.503314542E0,-9.004789352E0,-1.184447184E-1,3.648456335E0
1.513314542E0,-8.995218277E0,-8.973085135E-2,3.671786308E0
1.523314542E0,-8.971888542E0,-1.280160099E-1,3.691527128E0
1.533314542E0,-8.986245155E0,-1.471585929E-1,3.739383698E0
1.543314542E0,-8.995817184E0,-1.040877849E-1,3.743571043E0
1.553314542E0,-8.995817184E0,-6.101697683E-2,3.729214191E0
1.563314542E0,-9.014959335E0,-6.101697683E-2,3.733999729E0
1.573314542E0,-9.034101486E0,-7.597211748E-2,3.729214191E0
1.583314542E0,-9.072386742E0,-9.990034252E-2,3.719642878E0
1.593314542E0,-9.090931892E0,-1.094716340E-1,3.671786308E0
1.603314542E0,-9.043074608E0,-4.247260094E-2,3.661616802E0
1.613314542E0,-8.971290588E0,2.991028316E-2,3.613760471E0
1.623314542E0,-8.851649284E0,1.974078715E-1,3.522833109E0
1.633314542E0,-9.289535522E0,-5.599204898E-1,4.137190342E0
1.643314542E0,-9.291928291E0,-3.589234054E-1,3.757927895E0
1.653314542E0,-9.148359299E0,-1.573280841E-1,3.647858143E0
1.663314542E0,-9.018548965E0,-1.525424421E-1,3.610171080E0
1.673314542E0,-8.961120605E0,-1.280160099E-1,3.567698479E0
1.683314542E0,-8.947361946E0,-1.710868180E-1,3.687339783E0
1.693314542E0,-8.929415703E0,-1.567298770E-1,3.806980848E0
1.703314542E0,-8.924630165E0,-1.710868180E-1,3.850051641E0
1.713314542E0,-8.967700958E0,-2.003988922E-1,3.806980848E0
1.723314542E0,-8.982057571E0,-1.764706671E-1,3.792025566E0
1.733314542E0,-8.967103004E0,-8.015955985E-2,3.691527128E0
1.743314542E0,-8.891130447E0,5.982056726E-3,3.753142357E0
1.753314542E0,-8.896514893E0,1.555334684E-2,3.853640795E0
1.763314542E0,-8.858827591E0,1.208375469E-1,3.891327858E0
1.773314542E0,-8.840283394E0,2.027917206E-1,3.914657831E0
1.783314542E0,-8.911469460E0,2.021935135E-1,3.875774384E0
1.793314542E0,-8.944969177E0,2.548356056E-1,3.841676712E0
1.803314542E0,-9.035298347E0,2.739782035E-1,3.774079561E0
1.813314542E0,-9.073583603E0,3.170489967E-1,3.744767427E0
1.823314542E0,-9.077771187E0,3.122633696E-1,3.725624800E0
1.833314542E0,-9.082556725E0,3.026920557E-1,3.721437454E0
1.843314542E0,-9.049654961E0,3.218346536E-1,3.735794306E0
1.853314542E0,-9.002396584E0,3.266202807E-1,3.817150354E0
1.863314542E0,-8.959924698E0,3.266202807E-1,3.884149313E0
1.873314542E0,-8.950352669E0,3.026920557E-1,3.932604074E0
1.883314542E0,-8.916853905E0,2.739782035E-1,3.946960926E0
1.893314542E0,-8.912068367E0,2.261217386E-1,3.904488325E0
1.903314542E0,-8.911469460E0,2.021935135E-1,3.847658873E0
1.913314542E0,-8.892327309E0,1.639083475E-1,3.866801500E0
1.923314542E0,-8.882756233E0,1.495514214E-1,3.866801500E0
1.933314542E0,-8.877969742E0,1.208375469E-1,3.867399693E0
1.943314542E0,-8.911469460E0,8.733802289E-2,3.891327858E0
1.953314542E0,-8.906683922E0,6.819544733E-2,3.896113396E0
1.963314542E0,-8.921041489E0,6.819544733E-2,3.924827337E0
1.973314542E0,-8.906683922E0,4.905286431E-2,3.920041800E0
1.983314542E0,-8.897112846E0,2.991028316E-2,3.915256023E0
1.993314542E0,-8.892327309E0,-3.589233849E-3,3.930211306E0
2.003314542E0,-8.921041489E0,-3.230310604E-2,3.925425529E0
2.013314542E0,-8.925827026E0,-7.537391037E-2,3.911068678E0
2.023314542E0,-8.935398102E0,-1.184447184E-1,3.916452408E0
2.033314542E0,-8.944371223E0,-1.710868180E-1,3.892524242E0
2.043314542E0,-8.968298912E0,-1.950150430E-1,3.869194269E0
2.053314542E0,-8.986844063E0,-2.147558331E-1,3.840480328E0
2.063314542E0,-8.982057571E0,-2.051845491E-1,3.845266104E0
2.073314542E0,-8.977272034E0,-2.195414752E-1,3.864408493E0
2.083314542E0,-8.987442017E0,-2.147558331E-1,3.897309780E0
2.093314542E0,-8.977870941E0,-1.710868180E-1,3.902095556E0
2.103314542E0,-8.959325790E0,-1.519442350E-1,3.964308977E0
2.113314542E0,-8.949754715E0,-1.280160099E-1,3.949951887E0
2.123314542E0,-8.930612564E0,-8.494520187E-2,3.940380573E0
2.133314542E0,-8.897112846E0,-9.451649338E-2,3.940380573E0
2.143314542E0,-8.858827591E0,-8.494520187E-2,3.916452408E0
2.153314542E0,-8.854042053E0,-7.537391037E-2,3.935595036E0
2.163314542E0,-8.830113411E0,-6.101697683E-2,3.945166349E0
2.173314542E0,-8.792427063E0,-3.708875179E-2,3.969692707E0
2.183314542E0,-8.787641525E0,-8.374879137E-3,3.973880291E0
2.193314542E0,-8.802596092E0,9.212367237E-2,4.006781578E0
2.203314542E0,-8.788837433E0,1.453639716E-1,4.063611031E0
2.213314542E0,-8.807980537E0,1.399801224E-1,4.063611031E0
2.223314542E0,-8.841479301E0,1.399801224E-1,4.068396568E0
2.233314542E0,-8.879166603E0,1.256231815E-1,4.015156269E0
2.243314542E0,-8.922237396E0,7.298108935E-2,4.015754700E0
2.253314542E0,-8.945567131E0,3.948157281E-2,3.958326817E0
2.263314542E0,-8.940183640E0,-2.751746029E-2,3.949353695E0
2.273314542E0,-8.935398102E0,-5.144568533E-2,3.939782381E0
2.283314542E0,-8.935398102E0,-7.537391037E-2,3.945166349E0
2.293314542E0,-8.925827026E0,-9.451649338E-2,3.945166349E0
2.303314542E0,-8.911469460E0,-8.973085135E-2,3.926023722E0
2.313314542E0,-8.892327309E0,-8.494520187E-2,3.959523201E0
2.323314542E0,-8.873783112E0,-6.101697683E-2,3.969094515E0
2.333314542E0,-8.897112846E0,-1.794617064E-2,3.920639992E0
2.343314542E0,-8.925827026E0,2.991028316E-2,3.905684710E0
2.353314542E0,-8.959325790E0,3.948157281E-2,3.891327858E0
2.363314542E0,-8.997013092E0,3.948157281E-2,3.867399693E0
2.373314542E0,-9.011968613E0,6.340979785E-2,3.871587038E0
2.383314542E0,-8.987442017E0,6.819544733E-2,3.866801500E0
2.393314542E0,-8.977870941E0,6.340979785E-2,3.852444410E0
2.403314542E0,-8.949754715E0,8.255238086E-2,3.866801500E0
2.413314542E0,-8.921041489E0,8.733802289E-2,3.890729666E0
2.423314542E0,-8.911469460E0,9.690931439E-2,3.905086517E0
2.433314542E0,-8.916254997E0,9.212367237E-2,3.933800459E0
2.443314542E0,-8.912068367E0,9.690931439E-2,3.967299938E0
2.453314542E0,-8.907281876E0,8.733802289E-2,3.948755503E0
2.463314542E0,-8.892925262E0,9.690931439E-2,3.958326817E0
2.473314542E0,-8.888139725E0,1.064806059E-1,3.943969965E0
2.483314542E0,-8.888139725E0,8.733802289E-2,3.943969965E0
2.493314542E0,-8.888139725E0,7.298108935E-2,3.943969965E0
2.503314542E0,-8.906683922E0,8.255238086E-2,3.910470486E0
2.513314542E0,-8.916254997E0,1.064806059E-1,3.890729666E0
2.523314542E0,-8.892327309E0,1.447657645E-1,3.876372576E0
2.533314542E0,-8.868398666E0,1.686939895E-1,3.895515203E0
2.543314542E0,-8.864211082E0,1.639083475E-1,3.943371773E0
2.553314542E0,-8.849854469E0,1.734796464E-1,3.952943087E0
2.563314542E0,-8.845068932E0,1.639083475E-1,3.953541279E0
2.573314542E0,-8.850452423E0,1.734796464E-1,3.981656790E0
2.583314542E0,-8.854640007E0,1.447657645E-1,3.977469444E0
2.593314542E0,-8.897710800E0,1.160518974E-1,3.929014683E0
2.603314542E0,-8.921041489E0,1.016949639E-1,3.895515203E0
2.613314542E0,-8.897112846E0,8.255238086E-2,3.905684710E0
2.623314542E0,-8.911469460E0,4.905286431E-2,3.924827337E0
2.633314542E0,-8.911469460E0,1.555334684E-2,3.939184189E0
2.643314542E0,-8.921041489E0,-8.374879137E-3,3.901497364E0
2.653314542E0,-8.921041489E0,5.982056726E-3,3.896711588E0
2.663314542E0,-8.944969177E0,-8.374879137E-3,3.906282902E0
2.673314542E0,-8.959325790E0,-1.316052489E-2,3.915256023E0
2.683314542E0,-8.964112282E0,5.982056726E-3,3.896113396E0
2.693314542E0,-8.968897820E0,1.196411322E-3,3.920041800E0
2.703314542E0,-8.959325790E0,1.076770201E-2,3.896113396E0
2.713314542E0,-8.930612564E0,2.512463741E-2,3.905684710E0
2.723314542E0,-8.930612564E0,4.426721856E-2,3.896113396E0
2.733314542E0,-8.916254997E0,4.426721856E-2,3.881756544E0
2.743314542E0,-8.915657043E0,6.340979785E-2,3.843471289E0
2.753314542E0,-8.930013657E0,6.340979785E-2,3.843471289E0
2.763314542E0,-8.925228119E0,4.905286431E-2,3.843471289E0
2.773314542E0,-8.930013657E0,6.819544733E-2,3.824328899E0
2.783314542E0,-8.930013657E0,3.948157281E-2,3.857828379E0
2.793314542E0,-8.925827026E0,3.948157281E-2,3.881756544E0
2.803314542E0,-8.934800148E0,2.991028316E-2,3.857828379E0
2.813314542E0,-8.915657043E0,3.469592705E-2,3.848257065E0
2.823314542E0,-8.958727837E0,3.948157281E-2,3.857828379E0
2.833314542E0,-8.958727837E0,4.426721856E-2,3.833899975E0
2.843314542E0,-8.968298912E0,3.469592705E-2,3.814757586E0
2.853314542E0,-8.977870941E0,3.469592705E-2,3.814757586E0
2.863314542E0,-8.977870941E0,2.033899166E-2,3.819543123E0
2.873314542E0,-8.987442017E0,3.948157281E-2,3.814757586E0
2.883314542E0,-8.986844063E0,1.076770201E-2,3.790829182E0
2.893314542E0,-8.991629601E0,1.555334684E-2,3.795614958E0
2.903314542E0,-8.996415138E0,2.033899166E-2,3.790829182E0
2.913314542E0,-8.977272034E0,1.555334684E-2,3.795614958E0
2.923314542E0,-8.982057571E0,-1.316052489E-2,3.805186272E0
2.933314542E0,-8.987442017E0,-3.290131316E-2,3.829712629E0
2.943314542E0,-8.991629601E0,-8.973085321E-3,3.800400496E0
2.953314542E0,-8.991629601E0,5.982056726E-3,3.771686792E0
2.963314542E0,-8.972486496E0,2.512463741E-2,3.766901016E0
2.973314542E0,-8.958129883E0,1.555334684E-2,3.772284985E0
2.983314542E0,-8.982057571E0,-1.794617064E-2,3.796213150E0
2.993314542E0,-8.991629601E0,-1.854437590E-2,3.796213150E0
3.003314542E0,-8.991629601E0,1.495514158E-2,3.747758389E0
3.013314542E0,-8.962915421E0,4.905286431E-2,3.723830223E0
3.023314542E0,-8.962915421E0,5.383851007E-2,3.747758389E0
3.033314542E0,-8.986844063E0,1.112662554E-1,3.742374659E0
3.043314542E0,-9.020342827E0,1.399801224E-1,3.718446493E0
3.053314542E0,-9.029914856E0,1.734796464E-1,3.703491211E0
3.063314542E0,-9.053842545E0,1.639083475E-1,3.693919897E0
3.073314542E0,-9.082556725E0,1.447657645E-1,3.713062525E0
3.083314542E0,-9.101100922E0,1.154536903E-1,3.693919897E0
3.093314542E0,-9.110671997E0,1.106680483E-1,3.674777269E0
3.103314542E0,-9.091529846E0,1.010967568E-1,3.631706476E0
3.113314542E0,-9.077172279E0,1.208375469E-1,3.626920938E0
3.123314542E0,-9.071788788E0,1.399801224E-1,3.607778311E0
3.133314542E0,-9.062217712E0,1.591227055E-1,3.598206997E0
3.143314542E0,-9.048459053E0,1.830509305E-1,3.631706476E0
3.153314542E0,-9.024530411E0,2.069791555E-1,3.636492252E0
3.163314542E0,-9.010771751E0,1.974078715E-1,3.689134359E0
3.173314542E0,-8.982057571E0,2.021935135E-1,3.713062525E0
3.183314542E0,-8.953344345E0,2.309073806E-1,3.732205153E0
3.193314542E0,-8.930013657E0,1.878365725E-1,3.761517286E0
3.203314542E0,-8.925228119E0,1.782652885E-1,3.795016766E0
3.213314542E0,-8.925228119E0,1.639083475E-1,3.775874138E0
3.223314542E0,-8.930013657E0,1.256231815E-1,3.766302824E0
3.233314542E0,-8.920442581E0,2.021935135E-1,3.775874138E0
3.243314542E0,-8.928817749E0,-3.589233849E-3,3.705285788E0
3.253314542E0,-9.005388260E0,-1.381855011E-1,3.701098442E0
3.263314542E0,-9.067601204E0,-8.973085321E-3,3.685544968E0
3.273314542E0,-9.052646637E0,-1.286142170E-1,3.681357622E0
3.283314542E0,-9.047860146E0,6.281159073E-2,3.627519131E0
3.293314542E0,-9.119047165E0,-4.725824669E-2,3.522833109E0
3.303314542E0,-9.148359299E0,6.281159073E-2,3.631706476E0
3.313314542E0,-8.951549530E0,9.212367237E-2,4.096512318E0
3.323314542E0,-8.895318031E0,-8.374879137E-3,3.667598963E0
3.333314542E0,-9.054440498E0,-6.640082598E-2,3.222533941E0
3.343314542E0,-9.315856934E0,-5.264209956E-2,3.019742250E0
3.353314542E0,-9.294321060E0,6.699903309E-2,3.267399311E0
3.363314542E0,-9.171689034E0,1.154536903E-1,3.540181160E0
3.373314542E0,-9.122037888E0,2.159522474E-1,3.855435371E0
3.383314542E0,-9.107083321E0,2.398804724E-1,3.798007727E0
3.393314542E0,-9.139984131E0,2.111666054E-1,3.716651678E0
3.403314542E0,-9.142974854E0,1.058823988E-1,3.516851187E0
3.413314542E0,-9.184849739E0,5.383851007E-3,3.426522017E0
3.423314542E0,-9.175876617E0,5.982056609E-4,3.450450182E0
3.433314542E0,-9.160323143E0,-2.811566554E-2,3.340978622E0
3.443314542E0,-9.126823425E0,4.366901144E-2,3.321237803E0
3.453314542E0,-9.040681839E0,1.016949583E-2,3.322434187E0
3.463314542E0,-8.993423462E0,-1.190429255E-1,3.442673683E0
3.473314542E0,-9.021539688E0,5.383851007E-3,3.322434187E0
3.483314542E0,-9.008378983E0,5.324030295E-2,3.412763357E0
3.493314542E0,-9.014361382E0,5.802594870E-2,3.565903902E0
3.503314542E0,-9.032905579E0,9.631111473E-2,3.498306751E0
3.513314542E0,-9.062217712E0,1.968096644E-1,3.535993576E0
3.523314542E0,-9.072386742E0,1.920240223E-1,3.607778311E0
3.533314542E0,-9.086744308E0,2.063809484E-1,3.597608805E0
3.543314542E0,-9.086145401E0,2.063809484E-1,3.564109325E0
3.553314542E0,-9.066405296E0,1.393819153E-1,3.479164124E0
3.563314542E0,-9.090931892E0,-1.333998591E-1,3.017349243E0
3.573314542E0,-9.109476089E0,1.495514158E-2,3.527020693E0
3.583314542E0,-9.081958771E0,1.250249892E-1,3.660420418E0
3.593314542E0,-9.057432175E0,1.010967568E-1,3.565305710E0
3.603314542E0,-9.084351540E0,5.802594870E-2,3.388236761E0
3.613314542E0,-9.076574326E0,1.202393398E-1,3.583850145E0
3.623314542E0,-9.047262192E0,1.064806059E-1,3.479164124E0
3.633314542E0,-9.047262192E0,8.195417374E-2,3.488735437E0
3.643314542E0,-9.071190834E0,1.495514158E-2,3.556332588E0
3.653314542E0,-9.061619759E0,-8.973085321E-3,3.546761274E0
3.663314542E0,-9.094520569E0,-2.811566554E-2,3.484548092E0
3.673314542E0,-9.113663673E0,-1.375873014E-2,3.446262836E0
3.683314542E0,-9.104091644E0,-2.333002165E-2,3.451048374E0
3.693314542E0,-9.109476089E0,5.982056609E-4,3.503690481E0
3.703314542E0,-9.089735031E0,2.931207791E-2,3.474976778E0
3.713314542E0,-9.119047165E0,2.931207791E-2,3.507878065E0
3.723314542E0,-9.109476089E0,3.888336942E-2,3.522234917E0
3.733314542E0,-9.123832703E0,8.195417374E-2,3.497708559E0
3.743314542E0,-9.118449211E0,6.759724021E-2,3.474378586E0
3.753314542E0,-9.123234749E0,8.673982322E-2,3.473780155E0
3.763314542E0,-9.138189316E0,9.152546525E-2,3.483351469E0
3.773314542E0,-9.133403778E0,8.673982322E-2,3.502494097E0
3.783314542E0,-9.104690552E0,9.152546525E-2,3.498306751E0
3.793314542E0,-9.090332985E0,8.195417374E-2,3.527020693E0
3.803314542E0,-9.080761909E0,8.195417374E-2,3.517449379E0
3.813314542E0,-9.066405296E0,6.759724021E-2,3.527020693E0
3.823314542E0,-9.061619759E0,6.281159073E-2,3.503092289E0
3.833314542E0,-9.047262192E0,5.324030295E-2,3.522833109E0
3.843314542E0,-9.042476654E0,5.862415582E-2,3.537189960E0
3.853314542E0,-9.071190834E0,4.845465720E-2,3.536591768E0
3.863314542E0,-9.104690552E0,4.845465720E-2,3.503092289E0
3.873314542E0,-9.109476089E0,4.845465720E-2,3.488735437E0
3.883314542E0,-9.109476089E0,6.281159073E-2,3.498306751E0
3.893314542E0,-9.118449211E0,8.673982322E-2,3.455235958E0
3.903314542E0,-9.099904060E0,9.152546525E-2,3.479164124E0
3.913314542E0,-9.095118523E0,7.238288224E-2,3.479164124E0
3.923314542E0,-9.085547447E0,6.759724021E-2,3.488735437E0
3.933314542E0,-9.075378418E0,5.802594870E-2,3.446262836E0
3.943314542E0,-9.075378418E0,4.366901144E-2,3.465405464E0
3.953314542E0,-9.071190834E0,5.802594870E-2,3.479762316E0
3.963314542E0,-9.080163956E0,4.366901144E-2,3.465405464E0
3.973314542E0,-9.099306107E0,4.845465720E-2,3.450450182E0
3.983314542E0,-9.118449211E0,2.931207791E-2,3.431307554E0
3.993314542E0,-9.113663673E0,2.931207791E-2,3.479164124E0
4.003314542E0,-9.114261627E0,4.366901144E-2,3.498306751E0
4.013314542E0,-9.113663673E0,5.383851007E-3,3.494119167E0
4.023314542E0,-9.104690552E0,2.931207791E-2,3.493520975E0
4.033314542E0,-9.095118523E0,4.845465720E-2,3.522234917E0
4.043314542E0,-9.113663673E0,3.409772366E-2,3.488735437E0
4.053314542E0,-9.123832703E0,4.845465720E-2,3.507878065E0
4.063314542E0,-9.108877182E0,2.452643216E-2,3.488735437E0
4.073314542E0,-9.095118523E0,2.931207791E-2,3.498306751E0
4.083314542E0,-9.085547447E0,2.931207791E-2,3.494119167E0
4.093314542E0,-9.075976372E0,3.409772366E-2,3.508476257E0
4.103314542E0,-9.080761909E0,4.366901144E-2,3.503092289E0
4.113314542E0,-9.089735031E0,4.366901144E-2,3.479164124E0
4.123314542E0,-9.104091644E0,2.452643216E-2,3.455235958E0
4.133314542E0,-9.099306107E0,1.974078640E-2,3.455834150E0
4.143314542E0,-9.099306107E0,2.452643216E-2,3.465405464E0
4.153314542E0,-9.080163956E0,3.409772366E-2,3.479762316E0
4.163314542E0,-9.080761909E0,5.802594870E-2,3.498306751E0
4.173314542E0,-9.080761909E0,5.802594870E-2,3.498306751E0
4.183314542E0,-9.085547447E0,9.152546525E-2,3.507878065E0
4.193314542E0,-9.114261627E0,1.010967568E-1,3.483351469E0
4.203314542E0,-9.099306107E0,8.195417374E-2,3.469592810E0
4.213314542E0,-9.108877182E0,5.324030295E-2,3.460021496E0
4.223314542E0,-9.089735031E0,3.409772366E-2,3.446262836E0
4.233314542E0,-9.080163956E0,1.016949583E-2,3.455834150E0
4.243314542E0,-9.089735031E0,2.931207791E-2,3.479762316E0
4.253314542E0,-9.080163956E0,1.495514158E-2,3.470191002E0
4.263314542E0,-9.104690552E0,3.888336942E-2,3.488735437E0
4.273314542E0,-9.113663673E0,4.366901144E-2,3.460021496E0
4.283314542E0,-9.104690552E0,3.409772366E-2,3.484548092E0
4.293314542E0,-9.104091644E0,2.452643216E-2,3.474976778E0
4.303314542E0,-9.094520569E0,3.409772366E-2,3.479762316E0
4.313314542E0,-9.089735031E0,1.016949583E-2,3.470191002E0
4.323314542E0,-9.104690552E0,2.931207791E-2,3.503690481E0
4.333314542E0,-9.099904060E0,2.931207791E-2,3.494119167E0
4.343314542E0,-9.104091644E0,3.888336942E-2,3.470191002E0
4.353314542E0,-9.123234749E0,6.281159073E-2,3.464807272E0
4.363314542E0,-9.127422333E0,3.888336942E-2,3.402593851E0
4.373314542E0,-9.146564484E0,3.409772366E-2,3.397808075E0
4.383314542E0,-9.141778946E0,4.366901144E-2,3.397808075E0
4.393314542E0,-9.132805824E0,3.409772366E-2,3.412165165E0
4.403314542E0,-9.128020287E0,4.366901144E-2,3.412165165E0
4.413314542E0,-9.123234749E0,5.802594870E-2,3.436093330E0
4.423314542E0,-9.089735031E0,3.888336942E-2,3.441477060E0
4.433314542E0,-9.065806389E0,5.324030295E-2,3.446262836E0
4.443314542E0,-9.075378418E0,5.802594870E-2,3.460619688E0
4.453314542E0,-9.084949493E0,2.452643216E-2,3.455834150E0
4.463314542E0,-9.113663673E0,3.409772366E-2,3.450450182E0
4.473314542E0,-9.113663673E0,2.452643216E-2,3.470191002E0
4.483314542E0,-9.113663673E0,3.409772366E-2,3.455235958E0
4.493314542E0,-9.123234749E0,3.888336942E-2,3.436093330E0
4.503314542E0,-9.108877182E0,2.452643216E-2,3.440878868E0
4.513314542E0,-9.118449211E0,4.366901144E-2,3.460021496E0
4.523314542E0,-9.128020287E0,4.845465720E-2,3.426522017E0
4.533314542E0,-9.156734467E0,3.888336942E-2,3.421736479E0
4.543314542E0,-9.141778946E0,4.366901144E-2,3.397808075E0
4.553314542E0,-9.142376900E0,5.324030295E-2,3.407379389E0
4.563314542E0,-9.137591362E0,5.324030295E-2,3.431307554E0
4.573314542E0,-9.123234749E0,5.324030295E-2,3.440878868E0
4.583314542E0,-9.118449211E0,4.845465720E-2,3.445664644E0
4.593314542E0,-9.108877182E0,4.366901144E-2,3.455235958E0
4.603314542E0,-9.099306107E0,2.931207791E-2,3.431905985E0
4.613314542E0,-9.108877182E0,1.495514158E-2,3.460619688E0
4.623314542E0,-9.108877182E0,3.409772366E-2,3.436093330E0
4.633314542E0,-9.094520569E0,6.281159073E-2,3.426522017E0
4.643314542E0,-9.070592880E0,1.250249892E-1,3.402593851E0
4.653314542E0,-9.056235313E0,1.154536903E-1,3.416950703E0
4.663314542E0,-9.046664238E0,1.208375469E-1,3.407379389E0
4.673314542E0,-9.051449776E0,1.010967568E-1,3.402593851E0
4.683314542E0,-9.056235313E0,7.238288224E-2,3.407977581E0
4.693314542E0,-9.069993973E0,1.058823988E-1,3.378665686E0
4.703314542E0,-9.093922615E0,8.673982322E-2,3.359523058E0
4.713314542E0,-9.089137077E0,1.202393398E-1,3.369094372E0
4.723314542E0,-9.094520569E0,1.106680483E-1,3.393022537E0
4.733314542E0,-9.075378418E0,1.058823988E-1,3.407379389E0
4.743314542E0,-9.070592880E0,1.010967568E-1,3.464807272E0
4.753314542E0,-9.094520569E0,1.010967568E-1,3.460021496E0
4.763314542E0,-9.104091644E0,1.250249892E-1,3.440280676E0
4.773314542E0,-9.128020287E0,1.345962733E-1,3.425923824E0
4.783314542E0,-9.137591362E0,1.728814393E-1,3.411566973E0
4.793314542E0,-9.108877182E0,1.489532143E-1,3.445066452E0
4.803314542E0,-9.075378418E0,1.441675574E-1,3.440878868E0
4.813314542E0,-9.061020851E0,1.298106313E-1,3.426522017E0
4.823314542E0,-9.041878700E0,8.673982322E-2,3.455834150E0
4.833314542E0,-9.041878700E0,9.631111473E-2,3.431905985E0
4.843314542E0,-9.075378418E0,8.195417374E-2,3.416950703E0
4.853314542E0,-9.108877182E0,7.238288224E-2,3.426522017E0
4.863314542E0,-9.117850304E0,6.281159073E-2,3.388236761E0
4.873314542E0,-9.146564484E0,5.324030295E-2,3.373879910E0
4.883314542E0,-9.146564484E0,4.845465720E-2,3.369094372E0
4.893314542E0,-9.141778946E0,7.238288224E-2,3.373879910E0
4.903314542E0,-9.103493690E0,6.281159073E-2,3.383451223E0
4.913314542E0,-9.093922615E0,8.673982322E-2,3.378665686E0
4.923314542E0,-9.074779510E0,9.631111473E-2,3.388236761E0
4.933314542E0,-9.084949493E0,7.716853172E-2,3.412165165E0
4.943314542E0,-9.080163956E0,7.716853172E-2,3.397808075E0
4.953314542E0,-9.084949493E0,7.238288224E-2,3.402593851E0
4.963314542E0,-9.080163956E0,4.845465720E-2,3.431905985E0
4.973314542E0,-9.089735031E0,3.888336942E-2,3.474378586E0
4.983314542E0,-9.093922615E0,5.982056609E-4,3.403192043E0
4.993314542E0,-9.146564484E0,1.016949583E-2,3.416950703E0
5.003314542E0,-9.179466248E0,5.982056609E-4,3.345165968E0
5.013314542E0,-9.198608398E0,5.982056609E-4,3.330809116E0
5.023314542E0,-9.222537041E0,2.931207791E-2,3.302095175E0
5.033314542E0,-9.241679192E0,2.871387079E-2,3.291925669E0
5.043314542E0,-9.251250267E0,2.392822690E-2,3.282354355E0
5.053314542E0,-9.251250267E0,-1.914258115E-2,3.282952785E0
5.063314542E0,-9.250652313E0,-4.785645381E-2,3.282952785E0
5.073314542E0,-9.222537041E0,-5.742774159E-2,3.317050457E0
5.083314542E0,-9.232108116E0,-4.785645381E-2,3.335594654E0
5.093314542E0,-9.222537041E0,-8.135596663E-2,3.350549936E0
5.103314542E0,-9.203393936E0,-1.196411327E-1,3.336791277E0
5.113314542E0,-9.193822861E0,-1.196411327E-1,3.355933666E0
5.123314542E0,-9.179466248E0,-6.699903309E-2,3.317050457E0
5.133314542E0,-9.179466248E0,-7.178468257E-2,3.293720484E0
5.143314542E0,-9.207581520E0,-1.722832322E-1,3.288934708E0
5.153314542E0,-9.183652878E0,-2.297109663E-1,3.289532900E0
5.163314542E0,-9.183652878E0,-2.727817893E-1,3.318845034E0
5.173314542E0,-9.174081802E0,-3.302095234E-1,3.290729284E0
5.183314542E0,-9.178867340E0,-3.493520916E-1,3.290729284E0
5.193314542E0,-9.235696793E0,-4.402793646E-1,3.276372433E0
5.203314542E0,-9.235098839E0,-5.168496966E-1,3.253042459E0
5.213314542E0,-9.263813019E0,-6.753742099E-1,3.254238844E0
5.223314542E0,-9.235098839E0,-7.902296782E-1,3.288934708E0
5.233314542E0,-9.181260109E0,-8.949156404E-1,3.203391314E0
5.243314542E0,-9.123832703E0,-9.714859724E-1,3.185445070E0
5.253314542E0,-9.084949493E0,-1.043270707E0,3.095714331E0
5.263314542E0,-9.165108681E0,-1.120439172E0,3.004786968E0
5.273314542E0,-9.236295700E0,-1.163509965E0,2.904288530E0
5.283314542E0,-9.293125153E0,-1.283151150E0,2.876172781E0
5.293314542E0,-9.393623352E0,-1.427318692E0,2.909672260E0
5.303314542E0,-9.513264656E0,-1.475773335E0,2.985644341E0
5.313314542E0,-9.571290970E0,-1.470987678E0,3.047259569E0
5.323314542E0,-9.613164902E0,-1.475773335E0,2.879761934E0
5.333314542E0,-9.480961800E0,-1.159322619E0,3.012563705E0
5.343314542E0,-9.276374817E0,-9.768698215E-1,3.103491068E0
5.353314542E0,-9.134600639E0,-8.135597110E-1,3.270390272E0
5.363314542E0,-8.906683922E0,-5.545366406E-1,3.466003656E0
5.373314542E0,-8.703293800E0,-2.811566591E-1,3.656831264E0
5.383314542E0,-8.495118141E0,-5.084748194E-2,3.852444410E0
5.393314542E0,-8.367102623E0,3.110669367E-2,3.986442566E0
5.403314542E0,-8.248658180E0,8.374879509E-2,4.101297855E0
5.413314542E0,-8.239086151E0,5.503492057E-2,4.159324169E0
5.423314542E0,-8.371888161E0,-6.460621208E-2,4.030111313E0
5.433314542E0,-8.513663292E0,-2.039881349E-1,3.824328899E0
5.443314542E0,-8.707481384E0,-4.725824594E-1,3.629313707E0
5.453314542E0,-8.911469460E0,-7.459624410E-1,3.481556892E0
5.463314542E0,-9.044271469E0,-8.949156404E-1,3.357728481E0
5.473314542E0,-9.162715912E0,-1.134796143E0,3.286541939E0
5.483314542E0,-9.224330902E0,-1.316650629E0,3.268595695E0
5.493314542E0,-9.238688469E0,-1.412363529E0,3.336193085E0
5.503314542E0,-9.004789352E0,-1.599003673E0,3.391826153E0
5.513314542E0,-9.192625999E0,-1.335793257E0,3.503092289E0
5.523314542E0,-9.044869423E0,-1.287936807E0,3.541975737E0
5.533314542E0,-8.940183640E0,-1.258624673E0,3.638286829E0
5.543314542E0,-8.835497856E0,-1.186840057E0,3.700500250E0
5.553314542E0,-8.784051895E0,-1.119242787E0,3.790829182E0
5.563314542E0,-8.717651367E0,-1.133599758E0,3.911068678E0
5.573314542E0,-8.670392990E0,-1.128814101E0,3.987638950E0
5.583314542E0,-8.618349075E0,-1.047458172E0,3.982853174E0
5.593314542E0,-8.555537224E0,-1.018146038E0,3.958925009E0
5.603314542E0,-8.493324280E0,-1.008574724E0,3.911666870E0
5.613314542E0,-8.435895920E0,-1.018146038E0,3.878765583E0
5.623314542E0,-8.373085022E0,-1.003789067E0,3.855435371E0
5.633314542E0,-8.286943436E0,-9.936196208E-1,3.836891174E0
5.643314542E0,-8.234899521E0,-1.051047325E0,3.870988846E0
5.653314542E0,-8.220541954E0,-1.108475089E0,3.900300980E0
5.663314542E0,-8.316255569E0,-1.156929731E0,3.909274101E0
5.673314542E0,-8.455039024E0,-1.147358418E0,3.975076675E0
5.683314542E0,-8.541778564E0,-1.018146038E0,3.978665829E0
5.693314542E0,-8.603992462E0,-8.943174481E-1,3.952943087E0
5.703314542E0,-8.679964066E0,-1.138385415E0,3.997210264E0
5.713314542E0,-8.929415703E0,-6.071787477E-1,3.915256023E0
5.723314542E0,-9.010771751E0,-6.933203340E-1,3.963112593E0
5.733314542E0,-9.139984131E0,-8.087740541E-1,3.987040758E0
5.743314542E0,-9.211769104E0,-9.290133715E-1,4.010969162E0
5.753314542E0,-9.273982048E0,-1.048654556E0,4.064209461E0
5.763314542E0,-9.346364975E0,-1.096511006E0,4.154538155E0
5.773314542E0,-9.394221306E0,-1.231107235E0,4.241876125E0
5.783314542E0,-9.461220741E0,-1.470987678E0,4.319045067E0
5.793314542E0,-9.500103951E0,-1.681556106E0,4.415954113E0
5.803314542E0,-9.510273933E0,-1.772483349E0,4.531407833E0
5.813314542E0,-9.520442963E0,-1.762912035E0,4.593621254E0
5.823314542E0,-9.511469841E0,-1.681556106E0,4.660022259E0
5.833314542E0,-9.465408325E0,-1.643270969E0,4.855635166E0
5.843314542E0,-9.513862610E0,-1.514058471E0,4.926223755E0
5.853314542E0,-9.562317848E0,-1.384846091E0,5.000999451E0
5.863314542E0,-9.577272415E0,-1.174277663E0,5.023731232E0
5.873314542E0,-9.678369522E0,-1.045065284E0,5.021936417E0
5.883314542E0,-1.055653572E1,-9.463613629E-1,4.828716278E0
5.893314542E0,-1.117208862E1,2.015953064E-1,4.926223755E0
5.903314542E0,-1.189711380E1,3.008974493E-1,4.652843475E0
5.913314542E0,-1.247438240E1,2.632104978E-2,4.502694130E0
5.923314542E0,-1.308515072E1,-8.087740541E-1,3.309871912E0
5.933314542E0,-1.310548973E1,-9.475577474E-1,1.685743570E0
5.943314542E0,-1.291825104E1,-8.656035662E-1,8.985049129E-1
5.953314542E0,-1.193539906E1,-1.203589797E0,7.166503668E-1
5.963314542E0,-1.087418270E1,-1.708475351E0,8.805587292E-1
5.973314542E0,-9.920642853E0,-1.831107497E0,6.442674994E-1
5.983314542E0,-9.231510162E0,-1.700100541E0,5.952146053E-1
5.993314542E0,-8.462815285E0,-1.382453322E0,6.795616150E-1
6.003314542E0,-7.810173035E0,-8.632107973E-1,8.428717852E-1
6.013314542E0,-7.334599495E0,-1.202393398E-1,9.655039310E-1
6.023314542E0,-7.179664135E0,5.318048596E-1,1.171884894E0
6.033314542E0,-7.135396957E0,9.678967595E-1,1.479362607E0
6.043314542E0,-7.363911629E0,1.551745534E0,1.865803480E0
6.053314542E0,-7.693522930E0,2.010569334E0,2.275574446E0
6.063314542E0,-7.968697548E0,2.048256159E0,2.622533560E0
6.073314542E0,-8.339585304E0,1.759921074E0,3.075973511E0
6.083314542E0,-8.736793518E0,1.270588875E0,3.248854876E0
6.093314542E0,-9.094520569E0,7.094719410E-1,3.235694408E0
6.103314542E0,-9.574281693E0,-2.446661144E-1,3.058027267E0
6.113314542E0,-9.970891953E0,-1.098305583E0,2.673979282E0
6.123314542E0,-1.026760197E1,-1.721635938E0,2.217548370E0
6.133314542E0,-1.022632599E1,-2.051845312E0,1.957927108E0
6.143314542E0,-1.012403297E1,-2.228914261E0,1.744367719E0
6.153314542E0,-9.865009308E0,-2.166102648E0,1.645663738E0
6.163314542E0,-9.455837250E0,-1.777269006E0,1.803590059E0
6.173314542E0,-9.013762474E0,-1.225125194E0,2.012962103E0
6.183314542E0,-8.587840080E0,-5.539384484E-1,2.359921217E0
6.193314542E0,-8.313263893E0,1.890329868E-1,2.504088879E0
6.203314542E0,-8.157132149E0,7.884350419E-1,2.592025042E0
6.213314542E0,-7.992625713E0,1.358525038E0,2.784647465E0
6.223314542E0,-7.871190071E0,1.694118381E0,3.084348440E0
6.233314542E0,-7.995616913E0,2.053041935E0,3.042474031E0
6.243314542E0,-8.134998322E0,2.143969059E0,3.059821844E0
6.253314542E0,-8.292326927E0,2.167299032E0,3.005983353E0
6.263314542E0,-8.368298531E0,2.100300074E0,2.991626501E0
6.273314542E0,-8.531010628E0,1.941775560E0,3.020340443E0
6.283314542E0,-8.732605934E0,1.730608940E0,3.139981508E0
6.293314542E0,-8.831908226E0,1.490728498E0,3.064607620E0
6.303314542E0,-8.922835350E0,1.428515077E0,3.122035265E0
6.313314542E0,-8.888139725E0,1.025922656E0,3.067598581E0
6.323314542E0,-8.830712318E0,9.780662656E-1,3.092723370E0
6.333314542E0,-8.568099976E0,9.834501147E-1,3.104089260E0
6.343314542E0,-8.204988480E0,9.266205430E-1,3.168695450E0
6.353314542E0,-7.928019524E0,9.278169870E-1,3.208775282E0
6.363314542E0,-7.713861942E0,1.105484009E0,3.337987661E0
6.373314542E0,-7.637889862E0,1.134197950E0,3.372085333E0
6.383314542E0,-7.681559086E0,1.115055323E0,3.491128206E0
6.393314542E0,-7.889136314E0,1.248455167E0,3.689732552E0
6.403314542E0,-8.187042236E0,1.228714466E0,3.859622955E0
6.413314542E0,-8.617152214E0,1.055234790E0,3.872185230E0
6.423314542E0,-9.056235313E0,7.142575383E-1,3.857230186E0
6.433314542E0,-9.409176826E0,4.115654826E-1,3.842873096E0
6.443314542E0,-9.857233047E0,8.015955985E-2,3.708276987E0
6.453314542E0,-1.021854877E1,-2.512463629E-1,3.502494097E0
6.463314542E0,-1.048056316E1,-4.719842672E-1,3.473780155E0
6.473314542E0,-1.065404320E1,-6.065805554E-1,3.669393539E0
6.483314542E0,-1.073898792E1,-6.065805554E-1,4.122833252E0
6.493314542E0,-1.072821999E1,-5.682953596E-1,4.652843475E0
6.503314542E0,-1.068814087E1,-5.874379873E-1,4.992624283E0
6.513314542E0,-1.057089233E1,-5.682953596E-1,5.337191105E0
6.523314542E0,-1.013420200E1,-2.847459018E-1,5.701498032E0
6.533314542E0,-1.032084274E1,-8.931210637E-1,5.890531063E0
6.543314542E0,-1.027597713E1,-7.686942816E-1,5.555535793E0
6.553314542E0,-1.072821999E1,-3.768695593E-1,5.229514122E0
6.563314542E0,-1.098365402E1,-5.545366406E-1,5.506483078E0
6.573314542E0,-1.159083271E1,-8.195417374E-2,4.729413986E0
6.583314542E0,-1.243370438E1,4.331009090E-1,3.458226919E0
6.593314542E0,-1.375274849E1,5.018945336E-1,2.082353830E0
6.603314542E0,-1.410389519E1,1.205384374E0,8.847461939E-1
6.613314542E0,-1.368873978E1,1.699502230E0,2.632105052E-1
6.623314542E0,-1.244148159E1,1.640279889E0,-2.009970993E-1
6.633314542E0,-1.127737331E1,1.475175142E0,-4.450650215E-1
6.643314542E0,-1.025803089E1,1.252642632E0,-4.887340367E-1
6.653314542E0,-9.398408890E0,8.524430394E-1,-2.458625287E-1
6.663314542E0,-8.127820015E0,3.044866920E-1,1.064806059E-1
6.673314542E0,-7.109674454E0,-1.196411327E-1,9.140582681E-1
6.683314542E0,-6.541976929E0,-4.869394004E-1,1.881356835E0
6.693314542E0,-6.263213158E0,-6.825526357E-1,2.319841623E0
6.703314542E0,-6.300900459E0,-9.080761671E-1,2.941975355E0
6.713314542E0,-6.457031727E0,-1.147956610E0,3.468396425E0
6.723314542E0,-6.555137634E0,-9.182456732E-1,3.675973892E0
6.733314542E0,-6.632904530E0,-4.917250574E-1,3.782454491E0
6.743314542E0,-6.617949009E0,6.340979785E-2,3.515654564E0
6.753314542E0,-7.229913712E0,4.025924206E-1,3.427718401E0
6.763314542E0,-8.046463966E0,5.587241054E-1,3.220141172E0
6.773314542E0,-8.742177963E0,1.036092162E0,2.753540754E0
6.783314542E0,-9.241679192E0,1.379462242E0,2.274377823E0
6.793314542E0,-9.778269768E0,1.071984529E0,1.890329838E0
6.803314542E0,-1.024068260E1,8.213363886E-1,1.745564103E0
6.813314542E0,-1.048475075E1,1.459621787E-1,1.930409670E0
6.823314542E0,-1.031844902E1,-4.576273263E-1,2.280359983E0
6.833314542E0,-1.002413273E1,-6.340979934E-1,2.574677229E0
6.843314542E0,-9.433105469E0,-9.104689956E-1,2.939582586E0
6.853314542E0,-8.904889107E0,-1.239482164E0,3.394817114E0
6.863314542E0,-8.495717049E0,-1.435095429E0,3.704687595E0
6.873314542E0,-8.170890808E0,-1.578066587E0,3.827319860E0
6.883314542E0,-7.898707390E0,-1.692323804E0,3.873381615E0
6.893314542E0,-7.749754429E0,-1.826321840E0,3.846462488E0
6.903314542E0,-7.734799385E0,-1.831107497E0,3.756133318E0
6.913314542E0,-7.830512047E0,-1.692323804E0,3.735196114E0
6.923314542E0,-7.911868095E0,-1.520040631E0,3.714258909E0
6.933314542E0,-8.021938324E0,-1.304686546E0,3.664009571E0
6.943314542E0,-8.070392609E0,-1.146760225E0,3.691527128E0
6.953314542E0,-8.014161110E0,-9.355936646E-1,3.738187075E0
6.963314542E0,-7.824530125E0,-6.239284873E-1,3.866203070E0
6.973314542E0,-7.423133850E0,-4.845465720E-1,3.915256023E0
6.983314542E0,-7.141977310E0,-4.402793646E-1,4.036691666E0
6.993314542E0,-6.918846607E0,-4.211367965E-1,4.191029072E0
7.003314542E0,-6.790232658E0,-4.588237405E-1,4.331008911E0
7.013314542E0,-6.963113785E0,-4.450650215E-1,4.424927235E0
7.023314542E0,-7.258627415E0,-5.605186820E-1,4.308875561E0
7.033314542E0,-7.888537884E0,-8.159525394E-1,4.182055950E0
7.043314542E0,-8.586046219E0,-1.095314622E0,4.174877167E0
7.053314542E0,-9.217751503E0,-1.096511006E0,4.217947960E0
7.063314542E0,-9.620343208E0,-8.775677085E-1,4.261617184E0
7.073314542E0,-1.000857925E1,-3.942175210E-1,4.274179459E0
7.083314542E0,-1.043988514E1,5.503492057E-2,4.296911240E0
7.093314542E0,-1.061874866E1,1.794616925E-3,4.501497746E0
7.103314542E0,-1.070309544E1,3.798605800E-1,4.823332310E0
7.113314542E0,-1.038185883E1,7.304090858E-1,5.219344616E0
7.123314542E0,-9.977472305E0,7.980063558E-1,5.513063431E0
7.133314542E0,-1.050867844E1,2.985046208E-1,5.059025288E0
7.143314542E0,-1.196291637E1,2.572284341E-1,5.149952412E0
7.153314542E0,-1.337288761E1,1.709671736E0,5.889334679E0
7.163314542E0,-1.574836254E1,1.292722464E0,3.964308977E0
7.173314542E0,-1.750588989E1,-8.135596663E-2,1.515853167E0
7.183314542E0,-1.756750488E1,-1.412961721E0,-7.447660565E-1
7.193314542E0,-1.537747478E1,-2.499901533E0,-9.942178130E-1
7.203314542E0,-1.328495121E1,-3.050250769E0,-1.214955688E0
7.213314542E0,-1.200299644E1,-2.889333248E0,-1.264606714E0
7.223314542E0,-1.040578747E1,-2.176870346E0,-8.428717852E-1
7.233314542E0,-8.845068932E0,-1.268195987E0,-4.965107143E-2
7.243314542E0,-7.993224144E0,-5.814558864E-1,9.499505758E-1
7.253314542E0,-7.298707485E0,3.349951804E-1,2.381456852E0
7.263314542E0,-6.965506554E0,1.192822099E0,3.638885021E0
7.273314542E0,-6.978068829E0,1.734198213E0,4.519443989E0
7.283314542E0,-7.090531826E0,1.849053741E0,4.756333351E0
7.293314542E0,-7.459624767E0,1.618146300E0,4.354339123E0
7.303314542E0,-7.965108395E0,1.253240824E0,3.583850145E0
7.313314542E0,-8.330014229E0,8.261220455E-1,2.648256540E0
7.323314542E0,-8.645268440E0,2.219343036E-1,2.133799553E0
7.333314542E0,-8.912666321E0,-5.976074338E-1,1.717448473E0
7.343314542E0,-8.699107170E0,-9.900303483E-1,1.430309772E0
7.353314542E0,-8.673981667E0,-1.517049551E0,1.405783296E0
7.363314542E0,-8.554341316E0,-2.143969059E0,1.568495274E0
7.373314542E0,-8.205587387E0,-2.258226395E0,1.681556106E0
7.383314542E0,-7.648657799E0,-1.907079697E0,1.893320918E0
7.393314542E0,-7.216753006E0,-1.384247899E0,2.150549412E0
7.403314542E0,-6.881159782E0,-7.369893789E-1,2.521436930E0
7.413314542E0,-6.741179466E0,-1.328016520E-1,2.794816732E0
7.423314542E0,-6.933801651E0,4.079762697E-1,2.837289333E0
7.433314542E0,-7.193423271E0,9.481559992E-1,2.831905603E0
7.443314542E0,-7.840083599E0,1.555334687E0,2.789433002E0
7.453314542E0,-8.420342445E0,2.047059774E0,2.891726255E0
7.463314542E0,-8.883952141E0,2.424527645E0,2.737389088E0
7.473314542E0,-9.342776299E0,2.653042078E0,2.684746981E0
7.483314542E0,-9.653842926E0,2.638087034E0,2.716451883E0
7.493314542E0,-9.730413437E0,2.537588358E0,2.726023197E0
7.503314542E0,-9.654440880E0,2.394019127E0,2.790031195E0
7.513314542E0,-9.488738060E0,2.322234392E0,3.059223652E0
7.523314542E0,-9.182456970E0,2.107478619E0,3.062813044E0
7.533314542E0,-8.713463783E0,1.831107497E0,3.153740168E0
7.543314542E0,-8.340781212E0,1.630708575E0,3.244069338E0
7.553314542E0,-7.954340458E0,1.310668588E0,3.425923824E0
7.563314542E0,-7.725826263E0,1.009771109E0,3.692125320E0
7.573314542E0,-7.684549809E0,7.268198729E-1,3.962514400E0
7.583314542E0,-7.852645874E0,6.358926296E-1,4.109673023E0
7.593314542E0,-8.235497475E0,6.155536175E-1,4.121636868E0
7.603314542E0,-8.698508263E0,6.047859192E-1,4.022933006E0
7.613314542E0,-9.061619759E0,5.419743061E-1,3.968496323E0
7.623314542E0,-9.414560318E0,4.498506486E-1,3.937987804E0
7.633314542E0,-9.601799011E0,4.109672904E-1,3.970290899E0
7.643314542E0,-9.713065147E0,3.056831062E-1,4.204787731E0
7.653314542E0,-9.777072906E0,1.423729509E-1,4.496711731E0
7.663314542E0,-9.856635094E0,-6.340979785E-2,4.908875465E0
7.673314542E0,-9.887741089E0,-6.879365444E-2,5.237888813E0
7.683314542E0,-9.866206169E0,1.423729509E-1,5.490331650E0
7.693314542E0,-9.790233612E0,3.002992272E-1,5.575276852E0
7.703314542E0,-9.634101868E0,5.353940725E-1,5.699105263E0
7.713314542E0,-9.420542717E0,7.657032609E-1,5.822933674E0
7.723314542E0,-9.291928291E0,9.672985673E-1,5.894120216E0
7.733314542E0,-9.547960281E0,1.119840980E0,5.523830891E0
7.743314542E0,-1.035075283E1,7.782655358E-1,4.942375183E0
7.753314542E0,-1.113260746E1,1.974078640E-2,4.813162804E0
7.763314542E0,-1.191206932E1,-1.836491376E-1,4.202394962E0
7.773314542E0,-1.305583858E1,-3.870390654E-1,2.490330219E0
7.783314542E0,-1.380957794E1,-9.212367237E-2,8.817551732E-1
7.793314542E0,-1.365105343E1,-2.111666054E-1,2.578266263E-1
7.803314542E0,-1.279143143E1,-3.529413342E-1,-2.033899277E-1
7.813314542E0,-1.170509052E1,-1.154536903E-1,-3.696911037E-1
7.823314542E0,-1.081017494E1,1.399801224E-1,7.896314561E-2
7.833314542E0,-9.927223206E0,6.101697683E-2,9.792626500E-1
7.843314542E0,-9.227920532E0,1.914258115E-2,1.524826288E0
7.853314542E0,-8.419146538E0,-1.944168359E-1,2.076371908E0
7.863314542E0,-7.890332699E0,-6.867401004E-1,2.508874655E0
7.873314542E0,-7.715656757E0,-9.828519225E-1,2.870789051E0
7.883314542E0,-7.537989616E0,-9.876375198E-1,3.407379389E0
7.893314542E0,-7.431509018E0,-8.578268886E-1,3.827319860E0
7.903314542E0,-7.222136974E0,-5.078766346E-1,3.883551121E0
7.913314542E0,-7.217351437E0,-3.068794906E-1,3.858426571E0
7.923314542E0,-7.624729156E0,-3.792623878E-1,3.970889091E0
7.933314542E0,-8.206185341E0,-2.943171859E-1,3.698705673E0
7.943314542E0,-8.690732002E0,3.948157281E-2,3.157329559E0
7.953314542E0,-8.755936623E0,2.739782035E-1,2.864208698E0
7.963314542E0,-8.658429146E0,2.506481707E-1,2.654836655E0
7.973314542E0,-8.466404915E0,3.038884699E-1,2.535793781E0
7.983314542E0,-8.226524353E0,-2.392822644E-3,2.520838737E0
7.993314542E0,-7.998608112E0,-2.219343036E-1,2.753540754E0
8.003314542E0,-7.900502205E0,-2.841476798E-1,3.113062143E0
8.013314542E0,-7.786843300E0,-5.425725579E-1,3.297309637E0
8.023314542E0,-7.658827305E0,-7.483552694E-1,3.538386583E0
8.033314542E0,-7.580461979E0,-7.477570772E-1,3.878167391E0
8.043314542E0,-7.509275436E0,-9.056833982E-1,3.989433527E0
8.053314542E0,-7.570890903E0,-1.212562919E0,4.019941807E0
8.063314542E0,-7.761718273E0,-1.462014675E0,4.068396568E0
8.073314542E0,-8.057829857E0,-1.683350682E0,4.043870449E0
8.083314542E0,-8.348558426E0,-1.755733609E0,3.942175388E0
8.093314542E0,-8.577073097E0,-1.497308731E0,3.776472330E0
8.103314542E0,-8.725427628E0,-1.440479279E0,3.731606960E0
8.113314542E0,-8.873783112E0,-1.311266780E0,3.710669756E0
8.123314542E0,-8.811569214E0,-1.153340459E0,3.676572084E0
8.133314542E0,-8.688339233E0,-9.948160052E-1,3.742972851E0
8.143314542E0,-8.406583786E0,-8.458628058E-1,3.801596880E0
8.153314542E0,-8.121239662E0,-7.734799385E-1,3.946362734E0
8.163314542E0,-7.864609718E0,-7.202396393E-1,4.143770695E0
8.173314542E0,-7.712665558E0,-5.234299302E-1,4.277170658E0
8.183314542E0,-7.618747234E0,-5.234299302E-1,4.435695171E0
8.193314542E0,-7.709674358E0,-4.660021961E-1,4.424927235E0
8.203314542E0,-7.904091358E0,-5.000999570E-1,4.251447678E0
8.213314542E0,-8.189435959E0,-5.485545993E-1,4.087539196E0
8.223314542E0,-8.547162056E0,-5.204389095E-1,3.927220106E0
8.233314542E0,-8.958129883E0,-5.647061467E-1,3.896113396E0
8.243314542E0,-9.263813019E0,-6.131607890E-1,3.884747505E0
8.253314542E0,-9.574879646E0,-6.711867452E-1,3.935595036E0
8.263314542E0,-9.876974106E0,-6.287141442E-1,3.976273060E0
8.273314542E0,-1.005045319E1,-5.192425251E-1,4.146163464E0
8.283314542E0,-1.012403297E1,-4.378865361E-1,4.345963955E0
8.293314542E0,-1.008335495E1,-3.469592929E-1,4.679762840E0
8.303314542E0,-9.833304405E0,-3.080759048E-1,5.059025288E0
8.313314542E0,-9.567701340E0,-4.319044948E-1,5.438885689E0
8.323314542E0,-9.236295700E0,-1.914258115E-2,5.710471153E0
8.333314542E0,-8.894720078E0,1.878365725E-1,6.060421467E0
8.343314542E0,-8.666803360E0,3.607180119E-1,6.242276192E0
8.353314542E0,-8.634500504E0,3.080759048E-1,6.343372822E0
8.363314542E0,-9.215956688E0,3.828516230E-2,6.188437462E0
8.373314542E0,-1.055653572E1,5.527420044E-1,6.261418819E0
8.383314542E0,-1.203589821E1,1.459023595E0,6.239883423E0
8.393314542E0,-1.327358532E1,1.073180914E0,5.531607628E0
8.403314542E0,-1.445683575E1,-2.512463629E-1,3.090928555E0
8.413314542E0,-1.488574982E1,-1.200598717E0,6.532405615E-1
8.423314542E0,-1.418046474E1,-1.860419631E0,-7.752745152E-1
8.433314542E0,-1.307557964E1,-2.508874655E0,-1.207179070E0
8.443314542E0,-1.163689518E1,-2.979662418E0,-1.007976532E0
8.453314542E0,-1.034955597E1,-2.785245657E0,-5.222335458E-1
8.463314542E0,-9.106484413E0,-2.270190477E0,-1.196411322E-3
8.473314542E0,-8.134998322E0,-1.779063582E0,3.984049559E-1
8.483314542E0,-7.149155617E0,-8.955138922E-1,6.999006271E-1
8.493314542E0,-6.566503525E0,-1.794617064E-2,1.175474167E0
8.503314542E0,-6.438487530E0,6.580262184E-1,1.721037745E0
8.513314542E0,-6.665207386E0,1.347159147E0,2.459821701E0
8.523314542E0,-7.144370079E0,1.983051777E0,3.006581545E0
8.533314542E0,-7.699504852E0,2.455634356E0,3.538984776E0
8.543314542E0,-8.217551231E0,2.483151674E0,3.793222189E0
8.553314542E0,-8.754141808E0,2.046461582E0,3.997808456E0
8.563314542E0,-9.263215065E0,1.202393413E0,3.876372576E0
8.573314542E0,-9.592825890E0,4.109672904E-1,3.435495138E0
8.583314542E0,-9.712467194E0,-1.016949639E-1,3.022135019E0
8.593314542E0,-9.774680138E0,-5.808576941E-1,2.490330219E0
8.603314542E0,-9.741181374E0,-1.112064362E0,2.026122570E0
8.613314542E0,-9.556335449E0,-1.255633712E0,1.641476393E0
8.623314542E0,-9.234500885E0,-1.355534077E0,1.472184181E0
8.633314542E0,-8.881559372E0,-1.076770186E0,1.520638824E0
8.643314542E0,-8.478966713E0,-5.204389095E-1,1.853839397E0
8.653314542E0,-8.199604988E0,-9.810572863E-2,2.110469580E0
8.663314542E0,-7.886145115E0,4.582255483E-1,2.285743713E0
8.673314542E0,-7.756334782E0,1.128814101E0,2.611765862E0
8.683314542E0,-7.831110477E0,1.904686809E0,2.772683144E0
8.693314542E0,-7.913064480E0,2.335394859E0,2.793022156E0
8.703314542E0,-8.186444283E0,2.522035122E0,2.813361168E0
8.713314542E0,-8.377870560E0,2.612364054E0,2.825923443E0
8.723314542E0,-8.507680893E0,2.549552441E0,2.935395241E0
8.733314542E0,-8.660821915E0,2.305484533E0,2.998206854E0
8.743314542E0,-8.860024452E0,1.887937069E0,2.904288530E0
8.753314542E0,-9.022137642E0,1.418345571E0,2.925823927E0
8.763314542E0,-9.031110764E0,9.678967595E-1,2.981456995E0
8.773314542E0,-8.967700958E0,6.664010882E-1,2.955136061E0
8.783314542E0,-8.709276199E0,4.803591371E-1,2.973082066E0
8.793314542E0,-8.341978073E0,3.804588020E-1,3.086143017E0
8.803314542E0,-8.065607071E0,2.949153781E-1,3.288934708E0
8.813314542E0,-7.809575081E0,2.333002090E-1,3.592823267E0
8.823314542E0,-7.749754429E0,2.620140910E-1,3.845864296E0
8.833314542E0,-7.946564198E0,3.619144261E-1,3.954139471E0
8.843314542E0,-8.291130066E0,4.474578202E-1,3.903291941E0
8.853314542E0,-8.792427063E0,5.467599630E-1,3.836891174E0
8.863314542E0,-9.314660072E0,6.795616150E-1,3.865604877E0
8.873314542E0,-9.702297211E0,8.368897438E-1,3.885943890E0
8.883314542E0,-1.008993530E1,9.798609018E-1,3.886542082E0
8.893314542E0,-1.036391354E1,1.003190875E0,4.089931965E0
8.903314542E0,-1.047577763E1,9.116654396E-1,4.357329845E0
8.913314542E0,-1.060259724E1,8.015955687E-1,4.658227444E0
8.923314542E0,-1.082991505E1,6.861419082E-1,5.035097122E0
8.933314542E0,-1.098485088E1,6.376872063E-1,5.316253662E0
8.943314542E0,-1.107218838E1,5.270192027E-1,5.493322372E0
8.953314542E0,-1.116730309E1,4.935196638E-1,5.431109428E0
8.963314542E0,-1.152323532E1,2.291127741E-1,5.157729149E0
8.973314542E0,-1.159920788E1,-6.616154313E-1,5.335994720E0
8.983314542E0,-1.147238827E1,-1.054038405E0,5.133800983E0
8.993314542E0,-1.179781246E1,-1.083350420E0,3.937389612E0
9.003314542E0,-1.246840096E1,-6.681957245E-1,2.066202402E0
9.013314542E0,-1.293559933E1,-3.589233849E-3,1.054636598E0
9.023314542E0,-1.266401386E1,1.932204217E-1,5.246263742E-1
9.033314542E0,-1.194437218E1,4.055834413E-1,1.268195957E-1
9.043314542E0,-1.108116150E1,5.802595019E-1,-1.932204217E-1
9.053314542E0,-1.018624592E1,6.107679605E-1,-3.260220885E-1
9.063314542E0,-9.460023880E0,6.987041831E-1,-2.446661144E-1
9.073314542E0,-8.644071579E0,4.037888348E-1,8.315058798E-2
9.083314542E0,-7.974081516E0,-1.980060786E-1,8.039883971E-1
9.093314542E0,-7.259225845E0,-6.849454641E-1,1.299900889E0
9.103314542E0,-6.828517437E0,-9.475577474E-1,1.944766641E0
9.113314542E0,-6.588038921E0,-1.363908887E0,3.158525944E0
9.123314542E0,-6.600003242E0,-1.665404558E0,4.188037872E0
9.133314542E0,-6.811169624E0,-1.512862086E0,4.801796913E0
9.143314542E0,-7.278368473E0,-1.034895778E0,5.100899696E0
9.153314542E0,-7.879564762E0,-4.325026870E-1,4.800600529E0
9.163314542E0,-8.545368195E0,2.075773627E-1,4.098905087E0
9.173314542E0,-9.038887978E0,6.568298340E-1,3.489931822E0
9.183314542E0,-9.460023880E0,1.153938770E0,2.723630428E0
9.193314542E0,-9.684949875E0,1.430907965E0,2.041675806E0
9.203314542E0,-9.978668213E0,1.305882931E0,1.720439434E0
9.213314542E0,-1.016052341E1,1.180858016E0,1.782054663E0
9.223314542E0,-9.912865639E0,8.410771489E-1,2.015953064E0
9.233314542E0,-9.614361763E0,3.152543902E-1,2.547159672E0
9.243314542E0,-9.176474571E0,-7.178468257E-2,2.949752092E0
9.253314542E0,-8.519046783E0,-5.252245665E-1,3.401995659E0
9.263314542E0,-7.859824181E0,-8.542376757E-1,3.547359467E0
9.273314542E0,-7.396812916E0,-1.222134113E0,3.787838221E0
9.283314542E0,-7.152745247E0,-1.475175142E0,3.853042603E0
9.293314542E0,-7.048058987E0,-1.690529227E0,3.946362734E0
9.303314542E0,-7.018148899E0,-1.939382792E0,3.900300980E0
9.313314542E0,-7.137191772E0,-1.863410592E0,3.803391695E0
9.323314542E0,-7.295117855E0,-1.710269928E0,3.739383698E0
9.333314542E0,-7.572087288E0,-1.581655741E0,3.669393539E0
9.343314542E0,-7.762914658E0,-1.433300734E0,3.600001574E0
9.353314542E0,-7.830512047E0,-1.289731383E0,3.636492252E0
9.363314542E0,-7.793423176E0,-1.170090318E0,3.726821184E0
9.373314542E0,-7.603193760E0,-1.112064362E0,3.814159393E0
9.383314542E0,-7.332206726E0,-9.535398483E-1,4.005585194E0
9.393314542E0,-7.180860519E0,-7.615157962E-1,4.177269936E0
9.403314542E0,-7.164111137E0,-6.562315822E-1,4.425525665E0
9.413314542E0,-7.385447025E0,-3.984049559E-1,4.536791801E0
9.423314542E0,-7.752147198E0,-4.995017350E-1,4.381856441E0
9.433314542E0,-8.137989998E0,-3.762713671E-1,4.120440483E0
9.443314542E0,-8.762516975E0,-5.114658475E-1,3.902095556E0
9.453314542E0,-9.492327690E0,-5.850451589E-1,3.735196114E0
9.463314542E0,-1.018983555E1,-4.959124923E-1,3.595814228E0
9.473314542E0,-1.063430214E1,-3.960121572E-1,3.534198999E0
9.483314542E0,-1.102193928E1,-4.067798555E-1,3.574877024E0
9.493314542E0,-1.128754234E1,-5.892325640E-1,3.937389612E0
9.503314542E0,-1.139222908E1,-6.466603279E-1,4.529613495E0
9.513314542E0,-1.139761257E1,-4.600201547E-1,5.211567879E0
9.523314542E0,-1.127378368E1,-2.057827413E-1,5.793622017E0
9.533314542E0,-1.099083233E1,1.393819153E-1,6.242276192E0
9.543314542E0,-1.073898792E1,5.377869010E-1,6.317649841E0
9.553314542E0,-1.023649502E1,6.011967063E-1,6.301498413E0
9.563314542E0,-9.657432556E0,9.810572863E-1,6.082555294E0
9.573314542E0,-9.645467758E0,8.560323119E-1,5.864210129E0
9.583314542E0,-1.021256733E1,8.261220455E-1,5.563910961E0
9.593314542E0,-1.106441212E1,1.552343726E0,4.850251675E0
9.603314542E0,-1.176909828E1,5.545366406E-1,4.112065792E0
9.613314542E0,-1.233141136E1,-5.246263742E-1,2.845066071E0
9.623314542E0,-1.275793171E1,-1.392622828E0,7.459624410E-1
9.633314542E0,-1.226501083E1,-1.908276081E0,-4.127618968E-1
9.643314542E0,-1.119063377E1,-2.327618122E0,-7.130611539E-1
9.653314542E0,-1.043150997E1,-2.603390932E0,-5.096712112E-1
9.663314542E0,-9.631709099E0,-2.386242390E0,-1.142572835E-1
9.673314542E0,-8.734998703E0,-1.665404558E0,1.136590727E-2
9.683314542E0,-8.177471161E0,-8.117650747E-1,6.921239495E-1
9.693314542E0,-8.097311974E0,-3.589234129E-2,1.250848055E0
9.703314542E0,-8.382656097E0,7.489534616E-1,2.032104731E0
9.713314542E0,-8.603393555E0,1.524227977E0,2.574079037E0
9.723314542E0,-8.791230202E0,1.835294962E0,3.320639610E0
9.733314542E0,-8.881559372E0,1.840080619E0,3.817150354E0
9.743314542E0,-8.849854469E0,1.389631748E0,4.217350006E0
9.753314542E0,-8.968897820E0,7.334001660E-1,4.331008911E0
9.763314542E0,-9.094520569E0,1.489532143E-1,4.047459602E0
9.773314542E0,-8.983254433E0,-4.737788737E-1,3.431905985E0
9.783314542E0,-8.868997574E0,-8.087740541E-1,2.942573547E0
9.793314542E0,-8.620143890E0,-1.440479279E0,2.432902336E0
9.803314542E0,-8.358727455E0,-1.482951880E0,2.081755638E0
9.813314542E0,-8.009375572E0,-1.481755376E0,2.002792597E0
9.823314542E0,-7.684549809E0,-1.548156261E0,2.129612207E0
9.833314542E0,-7.374081135E0,-1.671984792E0,2.190030813E0
9.843314542E0,-7.392027378E0,-9.248259664E-1,2.433500528E0
9.853314542E0,-7.481758118E0,-6.340979785E-2,2.688934565E0
9.863314542E0,-7.676773071E0,6.454638839E-1,2.969492912E0
9.873314542E0,-7.952546120E0,1.142572761E0,3.221935749E0
9.883314542E0,-8.207980156E0,2.013560295E0,3.270988464E0
9.893314542E0,-8.354539871E0,2.386840582E0,3.544368505E0
9.903314542E0,-8.456234932E0,2.808575630E0,3.593421459E0
9.913314542E0,-8.516654015E0,2.769692183E0,3.425923824E0
9.923314542E0,-8.625527382E0,2.650051117E0,3.239881754E0
9.933314542E0,-8.701499939E0,2.462812662E0,3.235694408E0
9.943314542E0,-8.672187805E0,2.194816589E0,3.223730326E0
9.953314542E0,-8.547760963E0,1.936391711E0,3.340978622E0
9.963314542E0,-8.285148621E0,1.630708575E0,3.492922783E0
9.973314542E0,-7.941778183E0,1.392024517E0,3.655036688E0
9.983314542E0,-7.625925541E0,1.244267821E0,3.686741590E0
9.993314542E0,-7.411170006E0,1.130010486E0,3.775275946E0
1.000331454E1,-7.168298244E0,1.019940615E0,3.930211306E0
1.001331454E1,-7.077969551E0,8.572286963E-1,4.042075634E0
1.002331454E1,-7.221538544E0,7.280163169E-1,4.094717979E0
1.003331454E1,-7.599006653E0,6.119644046E-1,4.083351612E0
1.004331454E1,-8.297710419E0,5.000999570E-1,4.131806374E0
1.005331454E1,-9.181859016E0,2.823530734E-1,4.175475597E0
1.006331454E1,-9.900303841E0,1.178465188E-1,4.367499352E0
1.007331454E1,-1.062951660E1,-1.950150430E-1,4.708476543E0
1.008331454E1,-1.099023438E1,-3.726821244E-1,5.012963295E0
1.009331454E1,-1.114995575E1,-3.158525825E-1,5.303092957E0
1.010331454E1,-1.118046379E1,-1.387837082E-1,5.497509956E0
1.011331454E1,-1.095733356E1,1.489532143E-1,5.630909920E0
1.012331454E1,-1.062054348E1,3.942175210E-1,5.860620975E0
1.013331454E1,-1.026760197E1,5.575276613E-1,6.000600815E0
1.014331454E1,-9.820143700E0,6.687939167E-1,6.179464340E0
1.015331454E1,-9.852447510E0,9.326026440E-1,5.957530022E0
1.016331454E1,-1.048774147E1,6.580262184E-1,5.338985443E0
1.017331454E1,-1.081137085E1,-8.973085135E-2,5.337191105E0
1.018331454E1,-1.163928795E1,-9.212367237E-2,4.782055855E0
1.019331454E1,-1.302473164E1,-3.774677813E-1,2.781656265E0
1.020331454E1,-1.401117325E1,-4.007977992E-2,9.756734371E-1
1.021331454E1,-1.382333660E1,-1.304088384E-1,1.992024779E-1
1.022331454E1,-1.293380451E1,-4.875376225E-1,-2.985046208E-1
1.023331454E1,-1.167278671E1,-4.366901219E-1,-7.728816867E-1
1.024331454E1,-1.067318535E1,-2.476571500E-1,-7.866404653E-1
1.025331454E1,-9.639486313E0,-3.469592705E-2,-3.696911037E-1
1.026331454E1,-8.742177963E0,1.208375469E-1,4.570291340E-1
1.027331454E1,-7.816753387E0,-4.965107143E-2,1.439282775E0
1.028331454E1,-7.058826923E0,-3.158525825E-1,1.838286042E0
1.029331454E1,-6.504290104E0,-5.347958803E-1,2.556132793E0
1.030331454E1,-6.282355785E0,-7.022934556E-1,3.624528170E0
1.031331454E1,-6.409175396E0,-7.118647099E-1,4.531407833E0
1.032331454E1,-6.703492641E0,-5.832505226E-1,4.881956577E0
1.033331454E1,-7.316653252E0,-2.207378894E-1,4.917848587E0
1.034331454E1,-7.998608112E0,3.810569942E-1,4.469194412E0
1.035331454E1,-8.617152214E0,9.014959335E-1,3.882952929E0
1.036331454E1,-8.959325790E0,1.259821177E0,3.515056372E0
1.037331454E1,-9.161520004E0,1.374676585E0,3.073580742E0
1.038331454E1,-9.550951958E0,1.503290772E0,2.620738983E0
1.039331454E1,-9.838688850E0,1.521237016E0,2.164308071E0
1.040331454E1,-9.932606697E0,1.377667665E0,1.944766641E0
1.041331454E1,-9.871589661E0,8.554341197E-1,2.279163599E0
1.042331454E1,-9.401400566E0,3.445664644E-1,2.787638426E0
1.043331454E1,-8.881559372E0,3.888336942E-2,3.070589542E0
1.044331454E1,-8.156534195E0,-4.432703853E-1,3.475574970E0
1.045331454E1,-7.549355507E0,-8.392825127E-1,3.640081406E0
1.046331454E1,-7.057032108E0,-1.144367456E0,3.756133318E0
1.047331454E1,-6.891927242E0,-1.484148264E0,4.094119549E0
1.048331454E1,-6.805187702E0,-1.895713687E0,4.173680782E0
1.049331454E1,-6.881159782E0,-2.188236237E0,4.185046673E0
1.050331454E1,-7.134200573E0,-2.174477577E0,4.087539196E0
1.051331454E1,-7.549355507E0,-2.099103689E0,3.936193228E0
1.052331454E1,-7.931010723E0,-1.913061738E0,3.745963812E0
1.053331454E1,-8.264809608E0,-1.707877159E0,3.598805189E0
1.054331454E1,-8.398807526E0,-1.554736495E0,3.539582968E0
1.055331454E1,-8.408378601E0,-1.305882931E0,3.518645763E0
1.056331454E1,-8.188837051E0,-1.176072359E0,3.552145243E0
1.057331454E1,-7.965706348E0,-1.017547846E0,3.696312666E0
1.058331454E1,-7.752147198E0,-9.355936646E-1,3.859622955E0
1.059331454E1,-7.735995770E0,-5.617151260E-1,4.196412563E0
1.060331454E1,-7.800003529E0,-3.846462369E-1,4.342374802E0
1.061331454E1,-8.038687706E0,-6.939185411E-2,4.233501434E0
1.062331454E1,-8.395816803E0,3.529413417E-2,4.019941807E0
1.063331454E1,-9.045467377E0,2.871387079E-2,3.862613916E0
1.064331454E1,-9.717850685E0,-2.512463741E-2,3.671786308E0
1.065331454E1,-1.014257717E1,-1.411765367E-1,3.535993576E0
1.066331454E1,-1.055354404E1,-3.242274821E-1,3.587439299E0
1.067331454E1,-1.082333469E1,-5.497509837E-1,3.902095556E0
1.068331454E1,-1.091366386E1,-6.891329288E-1,4.518845558E0
1.069331454E1,-1.090828037E1,-6.699903607E-1,5.039882660E0
1.070331454E1,-1.072104168E1,-5.353940725E-1,5.541777134E0
1.071331454E1,-1.045543861E1,-2.087737769E-1,5.770890236E0
1.072331454E1,-1.010249710E1,7.178467698E-3,5.804987907E0
1.073331454E1,-9.915857315E0,-2.093719877E-2,5.810969830E0
1.074331454E1,-1.033699417E1,-3.427718580E-1,5.896512985E0
1.075331454E1,-1.117926693E1,5.988038778E-1,5.740381718E0
1.076331454E1,-1.196172047E1,1.559522152E0,5.236093998E0
1.077331454E1,-1.273220921E1,5.665007830E-1,4.306482315E0
1.078331454E1,-1.363310719E1,-2.404786795E-1,2.231905222E0
1.079331454E1,-1.395793247E1,-6.239284873E-1,4.552344978E-1
1.080331454E1,-1.343869019E1,-9.343972206E-1,-4.325026870E-1
1.081331454E1,-1.234038448E1,-1.472782373E0,-7.076773047E-1
1.082331454E1,-1.109372425E1,-1.810170293E0,-4.624129832E-1
1.083331454E1,-9.881160736E0,-1.711466432E0,-1.441675574E-1
1.084331454E1,-8.938986778E0,-1.369292736E0,3.373879790E-1
1.085331454E1,-7.810173035E0,-7.202396393E-1,7.561319470E-1
1.086331454E1,-7.044469833E0,3.349951655E-2,1.138385415E0
1.087331454E1,-6.671189308E0,6.334998012E-1,1.561915040E0
1.088331454E1,-6.385845661E0,1.131805062E0,2.267797709E0
1.089331454E1,-6.440282345E0,1.496112347E0,3.024527788E0
1.090331454E1,-6.909275532E0,1.705484390E0,3.640679598E0
1.091331454E1,-7.442874908E0,1.541576028E0,4.006183147E0
1.092331454E1,-8.097311974E0,9.744769931E-1,4.067798615E0
1.093331454E1,-8.807381630E0,4.510470629E-1,3.928416491E0
1.094331454E1,-9.483952522E0,4.247260094E-2,3.682554007E0
1.095331454E1,-9.689735413E0,-2.835494876E-1,3.162713289E0
1.096331454E1,-9.765109062E0,-7.004988194E-1,2.486740828E0
1.097331454E1,-9.520442963E0,-9.493523836E-1,1.826321840E0
1.098331454E1,-9.427721024E0,-9.343972206E-1,1.616351724E0
1.099331454E1,-9.260223389E0,-8.434699774E-1,1.535593987E0
1.100331454E1,-8.849256516E0,-6.173482537E-1,1.570289850E0
1.101331454E1,-8.511868477E0,-7.172485590E-1,1.874178290E0
1.102331454E1,-8.294121742E0,-4.049852192E-1,2.060220242E0
1.103331454E1,-8.111668587E0,3.086741269E-1,2.371287346E0
1.104331454E1,-8.010572433E0,9.176474810E-1,2.726023197E0
1.105331454E1,-8.042875290E0,1.558923960E0,3.050848961E0
1.106331454E1,-8.065009117E0,2.052443504E0,3.281756163E0
1.107331454E1,-8.133802414E0,2.574079037E0,3.401397467E0
1.108331454E1,-8.167302132E0,2.693720102E0,3.404986620E0
1.109331454E1,-8.334799767E0,2.779861689E0,3.355335474E0
1.110331454E1,-8.462217331E0,2.626122952E0,3.150151014E0
1.111331454E1,-8.804988861E0,2.333002090E0,3.049652576E0
1.112331454E1,-9.018548965E0,2.097907305E0,2.930609465E0
1.113331454E1,-9.047262192E0,1.935195327E0,2.941377163E0
1.114331454E1,-8.860622406E0,1.681556106E0,2.982653379E0
1.115331454E1,-8.511868477E0,1.514656782E0,3.100499868E0
1.116331454E1,-8.120641708E0,1.381855130E0,3.281157970E0
1.117331454E1,-7.844270706E0,1.262812138E0,3.436691523E0
1.118331454E1,-7.610970497E0,1.090528965E0,3.621536970E0
1.119331454E1,-7.555337429E0,9.708877802E-1,3.870988846E0
1.120331454E1,-7.719245911E0,8.751748800E-1,4.071387768E0
1.121331454E1,-8.006384850E0,7.974081635E-1,4.098307133E0
1.122331454E1,-8.516654015E0,6.430711150E-1,3.943371773E0
1.123331454E1,-9.150154114E0,3.786641955E-1,3.735196114E0
1.124331454E1,-9.747162819E0,1.040877849E-1,3.718446493E0
1.125331454E1,-1.015872860E1,-1.028913707E-1,3.755535126E0
1.126331454E1,-1.057507992E1,-3.577269912E-1,3.921836376E0
1.127331454E1,-1.093101215E1,-5.455635786E-1,4.250251293E0
1.128331454E1,-1.122891808E1,-5.796613097E-1,4.430311203E0
1.129331454E1,-1.147956657E1,-3.840480447E-1,4.599005222E0
1.130331454E1,-1.147657585E1,-2.350948304E-1,4.813162804E0
1.131331454E1,-1.124925709E1,-1.818545163E-1,5.062614441E0
1.132331454E1,-1.117926693E1,-1.339980662E-1,5.291727066E0
1.133331454E1,-1.159023476E1,-1.489532143E-1,5.251049519E0
1.134331454E1,-1.191625690E1,-1.069591761E0,5.661418438E0
1.135331454E1,-1.213220882E1,-1.352542996E0,5.184050083E0
1.136331454E1,-1.266221905E1,-1.315454245E0,3.818346739E0
1.137331454E1,-1.361635685E1,-8.003991842E-1,1.476371527E0
1.138331454E1,-1.385623741E1,-1.974078715E-1,1.226321608E-1
1.139331454E1,-1.317906857E1,2.159522474E-1,-3.242274821E-1
1.140331454E1,-1.200060368E1,7.405785918E-1,-7.501499057E-1
1.141331454E1,-1.059781170E1,1.040877819E0,-1.015154958E0
1.142331454E1,-9.236295700E0,1.173081279E0,-8.727820516E-1
1.143331454E1,-8.320442200E0,1.266401410E0,-6.281159520E-1
1.144331454E1,-7.235297680E0,1.034297585E0,1.698904037E-1
1.145331454E1,-6.317649841E0,6.197410822E-1,9.768698215E-1
1.146331454E1,-6.022136211E0,2.895315289E-1,1.841277003E0
1.147331454E1,-6.248856544E0,5.443671346E-2,2.763710260E0
1.148331454E1,-6.672386169E0,-3.056831062E-1,3.814757586E0
1.149331454E1,-7.027719975E0,-1.531406492E-1,4.594817638E0
1.150331454E1,-7.403393269E0,1.094716340E-1,4.872385025E0
1.151331454E1,-7.909475327E0,4.911268353E-1,4.679762840E0
1.152331454E1,-8.480163574E0,7.728816867E-1,4.157529354E0
1.153331454E1,-9.484550476E0,9.906286001E-1,3.522833109E0
1.154331454E1,-9.925428391E0,1.238883972E0,2.892324448E0
1.155331454E1,-1.009711361E1,1.472782373E0,2.177468538E0
1.156331454E1,-1.010788059E1,1.439282775E0,1.685145378E0
1.157331454E1,-1.019162941E1,1.031904817E0,1.520638824E0
1.158331454E1,-9.990633011E0,5.294120312E-1,1.606780410E0
1.159331454E1,-9.482157707E0,3.768695518E-2,2.172683001E0
1.160331454E1,-8.900702477E0,-7.130611539E-1,2.660220623E0
1.161331454E1,-8.374280930E0,-1.085145116E0,3.340380430E0
1.162331454E1,-7.878368378E0,-1.429113269E0,3.642474174E0
1.163331454E1,-7.365706444E0,-1.916650891E0,3.659224033E0
1.164331454E1,-7.113861561E0,-2.255833626E0,3.964308977E0
1.165331454E1,-7.073781967E0,-2.418545485E0,3.789034605E0
1.166331454E1,-7.011568546E0,-2.437688112E0,3.794418573E0
1.167331454E1,-7.092924595E0,-2.294118643E0,3.749552965E0
1.168331454E1,-7.327421188E0,-2.079362869E0,3.722633839E0
1.169331454E1,-7.595417500E0,-1.864008784E0,3.675973892E0
1.170331454E1,-7.998009682E0,-1.486541033E0,3.656233072E0
1.171331454E1,-8.223533630E0,-1.128215909E0,3.690330744E0
1.172331454E1,-8.296514511E0,-8.841479421E-1,3.764508247E0
1.173331454E1,-8.206783295E0,-6.825526357E-1,3.830909014E0
1.174331454E1,-7.944170952E0,-5.144568682E-1,3.897907972E0
1.175331454E1,-7.682157040E0,-4.420739710E-1,3.999603033E0
1.176331454E1,-7.515855789E0,-3.936193287E-1,4.076771736E0
1.177331454E1,-7.353144169E0,-5.946164131E-1,4.132404804E0
1.178331454E1,-7.581658363E0,-4.564309120E-1,3.972085476E0
1.179331454E1,-7.758727551E0,-4.372883439E-1,3.951746702E0
1.180331454E1,-8.188837051E0,-6.442674994E-1,3.993022680E0
1.181331454E1,-8.952147484E0,-8.949156404E-1,3.812364578E0
1.182331454E1,-9.711270332E0,-8.297112584E-1,3.615555048E0
1.183331454E1,-1.030469036E1,-5.294120312E-1,3.576073408E0
1.184331454E1,-1.066899776E1,-2.763710022E-1,3.629313707E0
1.185331454E1,-1.097707367E1,-1.094716340E-1,3.864408493E0
1.186331454E1,-1.105783176E1,7.716853172E-2,4.345366001E0
1.187331454E1,-1.093878841E1,3.792623878E-1,4.979464054E0
1.188331454E1,-1.066062355E1,7.100701332E-1,5.385047436E0
1.189331454E1,-1.029571724E1,1.137188911E0,5.766702652E0
1.190331454E1,-9.915258408E0,1.219741344E0,5.988636971E0
1.191331454E1,-9.905687332E0,1.415952802E0,5.906084538E0
1.192331454E1,-1.056909752E1,1.682752490E0,5.694319725E0
1.193331454E1,-1.147358418E1,2.858824968E0,5.450251579E0
1.194331454E1,-1.274297714E1,2.410170555E0,5.215157032E0
1.195331454E1,-1.387478256E1,8.464609981E-1,4.138985157E0
1.196331454E1,-1.461177158E1,-3.720839322E-1,2.044667006E0
1.197331454E1,-1.426241970E1,-1.601994753E0,5.030909777E-1
1.198331454E1,-1.317906857E1,-2.758326292E0,-1.310070455E-1
1.199331454E1,-1.223390388E1,-3.479164124E0,-2.913261652E-1
1.200331454E1,-1.095135117E1,-3.826123476E0,-3.517449200E-1
1.201331454E1,-9.504889488E0,-3.497110367E0,-1.004985496E-1
1.202331454E1,-8.371888161E0,-3.068196774E0,4.492524564E-1
1.203331454E1,-7.211369038E0,-2.414358139E0,1.083350420E0
1.204331454E1,-6.267998695E0,-1.368096352E0,1.287936807E0
1.205331454E1,-5.579464436E0,-3.948157281E-2,1.536192179E0
1.206331454E1,-5.398806095E0,6.837490797E-1,2.110469580E0
1.207331454E1,-5.592026711E0,1.780260086E0,2.650649309E0
1.208331454E1,-6.105287075E0,2.641077995E0,3.285943747E0
1.209331454E1,-7.015157700E0,3.007778168E0,3.984647989E0
1.210331454E1,-7.878368378E0,2.924627542E0,4.318446636E0
1.211331454E1,-9.044271469E0,2.207977057E0,4.348955154E0
1.212331454E1,-1.006660461E1,1.305284739E0,3.856033802E0
1.213331454E1,-1.070189953E1,5.425725579E-1,3.307479143E0
1.214331454E1,-1.130189991E1,-2.015953064E-1,2.596810818E0
1.215331454E1,-1.140060329E1,-7.956135273E-1,1.917249203E0
1.216331454E1,-1.112483025E1,-1.441675663E0,1.655833244E0
1.217331454E1,-1.056849957E1,-1.713261008E0,1.570888042E0
1.218331454E1,-9.738788605E0,-1.859821439E0,1.859821439E0
1.219331454E1,-9.111868858E0,-1.825125456E0,2.437688112E0
1.220331454E1,-8.450851440E0,-1.497906923E0,2.831307411E0
1.221331454E1,-7.894520283E0,-1.055832982E0,3.133401155E0
1.222331454E1,-7.362715244E0,-2.261217386E-1,3.431905985E0
1.223331454E1,-7.159923553E0,7.896314859E-1,3.526422262E0
1.224331454E1,-7.176074982E0,1.685743570E0,3.486342669E0
1.225331454E1,-7.372884750E0,2.053640127E0,3.477369547E0
1.226331454E1,-7.444071293E0,2.360519648E0,3.293122053E0
1.227331454E1,-7.577471256E0,2.705085993E0,3.136990547E0
1.228331454E1,-7.745566845E0,2.761915445E0,3.230908871E0
1.229331454E1,-7.966903210E0,2.813959360E0,3.381656647E0
1.230331454E1,-8.167302132E0,2.641077995E0,3.372085333E0
1.231331454E1,-8.367700577E0,2.367697954E0,3.439682484E0
1.232331454E1,-8.481958389E0,2.036890268E0,3.446262836E0
1.233331454E1,-8.515457153E0,1.668395638E0,3.519842148E0
1.234331454E1,-8.395217896E0,1.424327731E0,3.537189960E0
1.235331454E1,-8.256434441E0,1.146760225E0,3.578466177E0
1.236331454E1,-8.132605553E0,9.361918569E-1,3.685544968E0
1.237331454E1,-8.079963684E0,7.830511928E-1,3.754338741E0
1.238331454E1,-8.046463966E0,6.921239495E-1,3.788436413E0
1.239331454E1,-8.022536278E0,6.346961856E-1,3.808177233E0
1.240331454E1,-8.089534760E0,5.772684813E-1,3.832105398E0
1.241331454E1,-8.200202942E0,5.431707501E-1,3.922434568E0
1.242331454E1,-8.468797684E0,5.904290080E-1,4.015754700E0
1.243331454E1,-8.741579056E0,5.611169338E-1,4.018745422E0
1.244331454E1,-9.134002686E0,5.174478889E-1,4.054637909E0
1.245331454E1,-9.544969559E0,4.013960063E-1,4.085744858E0
1.246331454E1,-9.875179291E0,2.518445849E-1,4.094119549E0
1.247331454E1,-1.012881851E1,1.220339537E-1,4.222733974E0
1.248331454E1,-1.046022415E1,-7.776673418E-3,4.407579422E0
1.249331454E1,-1.073001480E1,-5.623133108E-2,4.654638290E0
1.250331454E1,-1.090409279E1,-1.812563092E-1,4.964509010E0
1.251331454E1,-1.088614655E1,-3.104687333E-1,5.200201988E0
1.252331454E1,-1.067677498E1,-4.396811724E-1,5.364708424E0
1.253331454E1,-1.046740246E1,-4.103690982E-1,5.485546112E0
1.254331454E1,-1.067258739E1,-2.189432681E-1,5.353342533E0
1.255331454E1,-1.138325596E1,-2.303091735E-1,5.119443893E0
1.256331454E1,-1.151186943E1,-7.668996453E-1,5.184648514E0
1.257331454E1,-1.196710396E1,-3.511467278E-1,4.600201607E0
1.258331454E1,-1.262692547E1,-1.519442350E-1,3.236890793E0
1.259331454E1,-1.316052437E1,6.658028960E-1,1.517049551E0
1.260331454E1,-1.309831142E1,8.530412912E-1,8.279166222E-1
1.261331454E1,-1.210469151E1,9.128618240E-1,3.038884699E-1
1.262331454E1,-1.125164986E1,1.168295622E0,2.632104978E-2
1.263331454E1,-1.015633583E1,1.195214868E0,-2.871387079E-2
1.264331454E1,-9.157332420E0,1.139581800E0,6.939185411E-2
1.265331454E1,-8.350353241E0,9.738788009E-1,2.386840582E-1
1.266331454E1,-7.340581894E0,5.024927258E-1,8.991031051E-1
1.267331454E1,-6.607779503E0,-1.423729509E-1,1.578066587E0
1.268331454E1,-6.377470493E0,-5.730810165E-1,2.266003132E0
1.269331454E1,-6.468996048E0,-9.230313301E-1,3.032304525E0
1.270331454E1,-6.672386169E0,-1.134197950E0,4.064209461E0
1.271331454E1,-7.070192814E0,-1.044467092E0,4.777868748E0
1.272331454E1,-7.795815945E0,-7.345965505E-1,5.162514687E0
1.273331454E1,-8.441280365E0,-3.098705411E-1,5.020740032E0
1.274331454E1,-9.189037323E0,2.584248483E-1,4.452444553E0
1.275331454E1,-9.714262009E0,7.603194118E-1,3.565903902E0
1.276331454E1,-1.003370380E1,9.702895880E-1,2.793022156E0
1.277331454E1,-1.011027431E1,1.042074203E0,2.166102648E0
1.278331454E1,-9.952945709E0,8.315058947E-1,1.595414519E0
1.279331454E1,-9.957731247E0,6.544370055E-1,1.687538147E0
1.280331454E1,-9.737591743E0,2.428714931E-1,1.768295884E0
1.281331454E1,-9.346364975E0,-1.537388563E-1,2.008176327E0
1.282331454E1,-8.865407944E0,-6.508477330E-1,2.406581402E0
1.283331454E1,-8.328219414E0,-8.841479421E-1,2.933002472E0
1.284331454E1,-7.795217991E0,-1.112662554E0,3.291925669E0
1.285331454E1,-7.281957626E0,-1.418345571E0,3.780061483E0
1.286331454E1,-7.005586624E0,-1.503889084E0,3.988237143E0
1.287331454E1,-6.906882763E0,-1.561316729E0,4.176073551E0
1.288331454E1,-6.948757172E0,-1.685743570E0,4.128815651E0
1.289331454E1,-7.033702374E0,-1.719243050E0,3.994219303E0
1.290331454E1,-7.420741081E0,-1.696511269E0,3.939184189E0
1.291331454E1,-7.779066563E0,-1.615753531E0,3.830909014E0
1.292331454E1,-8.213961601E0,-1.405783296E0,3.711866140E0
1.293331454E1,-8.471788406E0,-1.214955688E0,3.613162279E0
1.294331454E1,-8.514261246E0,-1.009172916E0,3.482155085E0
1.295331454E1,-8.389834404E0,-9.272187948E-1,3.453441381E0
1.296331454E1,-8.050651550E0,-8.117650747E-1,3.488735437E0
1.297331454E1,-7.741379261E0,-6.819544435E-1,3.637688637E0
1.298331454E1,-7.729415417E0,-5.952146053E-1,3.905086517E0
1.299331454E1,-7.585845947E0,-4.181457460E-1,3.894917011E0
1.300331454E1,-7.651648521E0,-3.367897868E-1,3.722035646E0
1.301331454E1,-7.927421570E0,-3.948157430E-1,3.510270834E0
1.302331454E1,-8.328219414E0,-5.300102234E-1,3.456432343E0
1.303331454E1,-9.001200676E0,-7.423732281E-1,3.309871912E0
1.304331454E1,-9.650852203E0,-7.196413875E-1,3.228515863E0
1.305331454E1,-1.019701385E1,-3.954139352E-1,3.251247883E0
1.306331454E1,-1.059123135E1,-1.136590764E-1,3.427718401E0
1.307331454E1,-1.091605663E1,1.298106313E-1,3.939782381E0
1.308331454E1,-1.104706383E1,4.073780477E-1,4.734797955E0
1.309331454E1,-1.092861938E1,7.764709592E-1,5.444868088E0
1.310331454E1,-1.071266651E1,1.045065284E0,5.851049423E0
1.311331454E1,-1.027478027E1,1.328614831E0,6.090929985E0
1.312331454E1,-9.865009308E0,1.545165181E0,6.178267956E0
1.313331454E1,-9.310472488E0,1.910668850E0,6.117250919E0
1.314331454E1,-9.290133476E0,1.690529227E0,6.056832314E0
1.315331454E1,-1.004806042E1,1.444068432E0,5.737988472E0
1.316331454E1,-1.110867882E1,2.179263115E0,5.452644825E0
1.317331454E1,-1.195035458E1,1.305882931E0,5.032704353E0
1.318331454E1,-1.324547005E1,-7.710871100E-1,3.653241873E0
1.319331454E1,-1.428395462E1,-1.506281853E0,1.414756417E0
1.320331454E1,-1.418465233E1,-2.281556368E0,-9.391828626E-2
1.321331454E1,-1.337528038E1,-2.854637384E0,-6.813562512E-1
1.322331454E1,-1.204846001E1,-3.330809116E0,-8.500502706E-1
1.323331454E1,-1.076471043E1,-3.212962627E0,-5.503492355E-1
1.324331454E1,-9.565308571E0,-2.726023197E0,9.451649338E-2
1.325331454E1,-8.714061737E0,-2.158924341E0,5.742774606E-1
1.326331454E1,-7.741977692E0,-1.060020447E0,7.118647099E-1
1.327331454E1,-7.111468792E0,1.148554832E-1,1.089930773E0
1.328331454E1,-6.974479675E0,8.907282352E-1,1.687538147E0
1.329331454E1,-6.923632145E0,1.709671736E0,2.355733871E0
1.330331454E1,-7.169494629E0,2.452044964E0,3.050848961E0
1.331331454E1,-7.728219032E0,2.397608280E0,3.530011654E0
1.332331454E1,-8.316853523E0,1.912463546E0,3.735196114E0
1.333331454E1,-9.037093163E0,1.240678549E0,3.653840065E0
1.334331454E1,-9.501898766E0,4.683950245E-1,3.426522017E0
1.335331454E1,-9.756135941E0,-3.469592705E-2,3.060420275E0
1.336331454E1,-9.784850121E0,-4.564309120E-1,2.518445730E0
1.337331454E1,-9.607781410E0,-6.813562512E-1,1.962114573E0
1.338331454E1,-9.389435768E0,-7.621139884E-1,1.558325768E0
1.339331454E1,-9.053842545E0,-8.524430394E-1,1.484746456E0
1.340331454E1,-8.648259163E0,-8.847461939E-1,1.631306887E0
1.341331454E1,-8.383254051E0,-7.884350419E-1,1.904686809E0
1.342331454E1,-8.257032394E0,-5.485545993E-1,2.261815548E0
1.343331454E1,-8.216354370E0,-1.657029688E-1,2.465205431E0
1.344331454E1,-8.158329010E0,5.964110494E-1,2.818146944E0
1.345331454E1,-8.152346611E0,1.415354609E0,3.056232691E0
1.346331454E1,-8.150551796E0,2.119442701E0,3.247060299E0
1.347331454E1,-8.142177582E0,2.449652195E0,3.259024382E0
1.348331454E1,-8.165507317E0,2.598007202E0,3.176471949E0
1.349331454E1,-8.175078392E0,2.612364054E0,3.119044304E0
1.350331454E1,-8.264809608E0,2.429911375E0,3.048455954E0
1.351331454E1,-8.355736732E0,2.142772675E0,3.107080221E0
1.352331454E1,-8.503493309E0,1.754537225E0,3.171088219E0
1.353331454E1,-8.583653450E0,1.342373490E0,3.187838078E0
1.354331454E1,-8.583653450E0,1.083350420E0,3.199203968E0
1.355331454E1,-8.449056625E0,9.116654396E-1,3.196212769E0
1.356331454E1,-8.196015358E0,7.633104324E-1,3.285345554E0
1.357331454E1,-7.952546120E0,6.634100676E-1,3.364308596E0
1.358331454E1,-7.843074322E0,6.257231236E-1,3.455834150E0
1.359331454E1,-7.762914658E0,5.922235847E-1,3.595216036E0
1.360331454E1,-7.849654675E0,5.922235847E-1,3.704687595E0
1.361331454E1,-8.035696983E0,5.916253924E-1,3.655634880E0
1.362331454E1,-8.260024071E0,5.766702294E-1,3.597010612E0
1.363331454E1,-8.580063820E0,5.090730190E-1,3.537788391E0
1.364331454E1,-8.943174362E0,4.217349887E-1,3.516851187E0
1.365331454E1,-9.259027481E0,4.019941986E-1,3.528815269E0
1.366331454E1,-9.646066666E0,3.098705411E-1,3.570091486E0
1.367331454E1,-9.958329201E0,2.279163599E-1,3.711866140E0
1.368331454E1,-1.025145054E1,1.268195957E-1,3.944568157E0
1.369331454E1,-1.045364380E1,7.836493850E-2,4.182653904E0
1.370331454E1,-1.066600704E1,-5.144568533E-2,4.482953072E0
1.371331454E1,-1.075872898E1,-1.860419661E-1,4.707878590E0
1.372331454E1,-1.075513935E1,-3.918247223E-1,4.972285271E0
1.373331454E1,-1.064626598E1,-5.641079545E-1,5.108078003E0
1.374331454E1,-1.053679466E1,-6.646065116E-1,5.224130154E0
1.375331454E1,-1.094058323E1,-6.556333899E-1,4.901099205E0
1.376331454E1,-1.129771233E1,-1.326820135E0,4.865206718E0
1.377331454E1,-1.168475151E1,-1.189232826E0,4.780261517E0
1.378331454E1,-1.273220921E1,-8.943174481E-1,4.077968121E0
1.379331454E1,-1.400818157E1,-5.623133183E-1,2.599801779E0
1.380331454E1,-1.458963776E1,1.022931710E-1,1.549352646E0
1.381331454E1,-1.443829155E1,7.154539824E-1,9.343972206E-1
1.382331454E1,-1.344227982E1,8.572286963E-1,1.567298770E-1
1.383331454E1,-1.225185013E1,1.266999602E0,-5.359922647E-1
1.384331454E1,-1.133719349E1,1.450648785E0,-7.698906660E-1
1.385331454E1,-1.026281643E1,1.439282775E0,-5.330012441E-1
1.386331454E1,-9.060422897E0,1.087537885E0,-1.298106313E-1
1.387331454E1,-7.736593723E0,5.252245665E-1,1.603191197E-1
1.388331454E1,-6.739983082E0,2.452643216E-2,6.963114142E-1
1.389331454E1,-5.708676815E0,-5.670989752E-1,1.711466432E0
1.390331454E1,-5.179264545E0,-1.025324464E0,2.645265341E0
1.391331454E1,-5.084149837E0,-1.380060434E0,3.456432343E0
1.392331454E1,-5.362913609E0,-1.529013634E0,4.267599106E0
1.393331454E1,-5.883352757E0,-1.592423439E0,4.823332310E0
1.394331454E1,-6.689135551E0,-1.412363529E0,5.050650597E0
1.395331454E1,-7.703094482E0,-9.690931439E-1,4.968696117E0
1.396331454E1,-8.955139160E0,-3.828516304E-1,4.095914364E0
1.397331454E1,-9.886545181E0,2.039881349E-1,3.114856958E0
1.398331454E1,-1.053141022E1,6.622136831E-1,2.266003132E0
1.399331454E1,-1.086700439E1,8.626125455E-1,1.713261008E0
1.400331454E1,-1.105065346E1,9.822536707E-1,1.295115232E0
1.401331454E1,-1.097946644E1,8.913264275E-1,1.382453322E0
1.402331454E1,-1.069950676E1,6.382854581E-1,1.715653777E0
1.403331454E1,-1.018624592E1,1.842473447E-1,2.286342144E0
1.404331454E1,-9.477372169E0,-2.404786795E-1,2.930011272E0
1.405331454E1,-8.701499939E0,-6.071787477E-1,3.477967739E0
1.406331454E1,-8.110472679E0,-7.926225066E-1,3.751347780E0
1.407331454E1,-7.594819069E0,-9.786644578E-1,3.990031719E0
1.408331454E1,-7.164709091E0,-1.226321578E0,4.080958843E0
1.409331454E1,-7.000801086E0,-1.532602906E0,3.964907169E0
1.410331454E1,-7.057630539E0,-1.523031592E0,3.873381615E0
1.411331454E1,-7.195217609E0,-1.437488198E0,3.723830223E0
1.412331454E1,-7.471588612E0,-1.236491084E0,3.519842148E0
1.413331454E1,-7.743772507E0,-1.117448211E0,3.473780155E0
1.414331454E1,-7.911868095E0,-1.060618639E0,3.510869026E0
1.415331454E1,-8.066205025E0,-8.883354068E-1,3.684946775E0
1.416331454E1,-7.986643791E0,-8.309076428E-1,3.885943890E0
1.417331454E1,-7.796414375E0,-8.638089895E-1,4.026522160E0
1.418331454E1,-7.395018578E0,-1.006780148E0,4.130609989E0
1.419331454E1,-7.046862602E0,-9.726824164E-1,4.232903481E0
1.420331454E1,-6.905087948E0,-9.146564603E-1,4.424329281E0
1.421331454E1,-6.834499836E0,-6.801598072E-1,4.480560303E0
1.422331454E1,-6.978667259E0,-5.318048596E-1,4.530809879E0
1.423331454E1,-7.298707485E0,-4.558327198E-1,4.461417675E0
1.424331454E1,-7.723433495E0,-2.650051117E-1,4.328018188E0
1.425331454E1,-8.123632431E0,-2.901297510E-1,4.138985157E0
1.426331454E1,-8.666803360E0,-1.956132501E-1,3.829114437E0
1.427331454E1,-9.205786705E0,0.000000000E0,3.627519131E0
1.428331454E1,-9.660423279E0,2.285145670E-1,3.594019651E0
1.429331454E1,-1.016829967E1,4.576273263E-1,3.661018610E0
1.430331454E1,-1.063490009E1,4.755735099E-1,3.977469444E0
1.431331454E1,-1.099322510E1,2.973082066E-1,4.630710125E0
1.432331454E1,-1.123669529E1,4.977070987E-1,5.158327579E0
1.433331454E1,-1.132164001E1,3.302095234E-1,5.684150219E0
1.434331454E1,-1.129232788E1,9.433703423E-1,6.048457623E0
1.435331454E1,-1.100698376E1,1.437488198E0,6.132804394E0
1.436331454E1,-1.066241741E1,1.591227055E0,6.019145489E0
1.437331454E1,-1.063490009E1,1.356730461E0,5.595615864E0
1.438331454E1,-1.128156090E1,1.475175142E0,5.132006168E0
1.439331454E1,-1.204846001E1,1.257428288E0,4.769493580E0
1.440331454E1,-1.291107273E1,-6.843472719E-1,4.261617184E0
1.441331454E1,-1.416192055E1,-2.497508526E0,2.612364054E0
1.442331454E1,-1.474098396E1,-3.432504177E0,1.071984529E0
1.443331454E1,-1.430309772E1,-3.742972851E0,1.692921966E-1
1.444331454E1,-1.298166084E1,-4.055834293E0,-5.407779217E-1
1.445331454E1,-1.161835003E1,-4.009772778E0,-6.412764788E-1
1.446331454E1,-1.023769188E1,-3.364906788E0,-6.221339107E-1
1.447331454E1,-9.160323143E0,-2.806781054E0,-3.080759048E-1
1.448331454E1,-7.969893932E0,-2.248655081E0,2.075773627E-1
1.449331454E1,-7.040880680E0,-1.527817249E0,4.666004181E-1
1.450331454E1,-6.357131481E0,-3.960121572E-1,7.501499057E-1
1.451331454E1,-6.123233318E0,4.809573591E-1,1.194616675E0
1.452331454E1,-6.092724800E0,1.391426325E0,1.938186288E0
1.453331454E1,-6.598208427E0,1.710868239E0,2.974278450E0
1.454331454E1,-7.301100254E0,1.766501307E0,3.556332588E0
1.455331454E1,-8.200801849E0,1.645065546E0,3.646661758E0
1.456331454E1,-9.179466248E0,1.048654556E0,3.572484255E0
1.457331454E1,-9.955338478E0,3.092723191E-1,3.309871912E0
1.458331454E1,-1.033041382E1,-3.649054468E-2,3.047259569E0
1.459331454E1,-1.060199928E1,-7.890332937E-1,2.553740025E0
1.460331454E1,-1.052901745E1,-9.038887620E-1,1.766501307E0
1.461331454E1,-1.014257717E1,-9.559326172E-1,1.243669510E0
1.462331454E1,-9.763314247E0,-1.103091240E0,1.099501967E0
1.463331454E1,-9.237491608E0,-1.135394335E0,1.165304661E0
1.464331454E1,-8.757132530E0,-1.000199914E0,1.506880045E0
1.465331454E1,-8.454441071E0,-9.852447510E-1,1.896311998E0
1.466331454E1,-8.394021988E0,-8.027920127E-1,2.115255117E0
1.467331454E1,-8.316255569E0,-3.816552162E-1,2.399402857E0
1.468331454E1,-8.270791054E0,3.080759048E-1,2.519043922E0
1.469331454E1,-8.186444283E0,9.505487680E-1,2.572284460E0
1.470331454E1,-8.188837051E0,1.788634896E0,2.709273338E0
1.471331454E1,-8.235497475E0,2.478366137E0,2.995813847E0
1.472331454E1,-8.194221497E0,2.770290375E0,3.093919754E0
1.473331454E1,-8.112865448E0,2.938386202E0,3.093321562E0
1.474331454E1,-8.195417404E0,2.933002472E0,3.207578659E0
1.475331454E1,-8.358727455E0,2.846860647E0,3.326621771E0
1.476331454E1,-8.468797684E0,2.449054003E0,3.443271875E0
1.477331454E1,-8.539983749E0,2.123031855E0,3.459423304E0
1.478331454E1,-8.572885513E0,1.610369682E0,3.515654564E0
1.479331454E1,-8.566903114E0,1.097707391E0,3.567100286E0
1.480331454E1,-8.465806961E0,8.009973764E-1,3.498306751E0
1.481331454E1,-8.259425163E0,5.240281820E-1,3.501895905E0
1.482331454E1,-8.072785378E0,4.235295951E-1,3.513261795E0
1.483331454E1,-7.953742504E0,3.571287692E-1,3.619742393E0
1.484331454E1,-7.877770424E0,3.044866920E-1,3.692125320E0
1.485331454E1,-7.892725468E0,2.470589429E-1,3.764508247E0
1.486331454E1,-8.029714584E0,2.895315289E-1,3.562314749E0
1.487331454E1,-8.306085587E0,4.947160780E-1,3.329612732E0
1.488331454E1,-8.565108299E0,6.239284873E-1,3.407977581E0
1.489331454E1,-8.947361946E0,7.806583643E-1,3.366103172E0
1.490331454E1,-9.406784058E0,1.004985452E0,3.308675528E0
1.491331454E1,-9.769894600E0,1.143171072E0,3.276372433E0
1.492331454E1,-1.018205833E1,1.199402332E0,3.330210924E0
1.493331454E1,-1.058106136E1,1.194018483E0,3.609572887E0
1.494331454E1,-1.102552891E1,1.073180914E0,4.262215137E0
1.495331454E1,-1.125344467E1,8.620143533E-1,4.744369030E0
1.496331454E1,-1.135214901E1,4.211367965E-1,5.224728107E0
1.497331454E1,-1.140718365E1,-8.195417374E-2,5.663212776E0
1.498331454E1,-1.132164001E1,-5.461617708E-1,5.930012703E0
1.499331454E1,-1.104945660E1,-8.572286963E-1,6.029314995E0
1.500331454E1,-1.060857964E1,-9.613165259E-1,5.928217888E0
1.501331454E1,-1.063789082E1,-9.230313301E-1,5.401797295E0
1.502331454E1,-1.080179977E1,-1.186840057E0,4.992026329E0
1.503331454E1,-1.083649540E1,-1.201196909E0,4.585844517E0
1.504331454E1,-1.149033451E1,-9.062815905E-1,3.666402578E0
1.505331454E1,-1.251865005E1,-7.022934556E-1,2.401197433E0
1.506331454E1,-1.298764324E1,-1.381855011E-1,1.628913999E0
1.507331454E1,-1.303908920E1,6.185446382E-1,1.265205026E0
1.508331454E1,-1.230389404E1,1.084546804E0,6.358926296E-1
1.509331454E1,-1.144187927E1,1.283151150E0,-2.147558331E-1
1.510331454E1,-1.079761219E1,1.135992527E0,-5.868397355E-1
1.511331454E1,-1.001994514E1,8.500502706E-1,-9.182456732E-1
1.512331454E1,-9.202198029E0,3.302095234E-1,-7.609176040E-1
1.513331454E1,-8.271389961E0,-2.662015259E-1,-3.631108403E-1
1.514331454E1,-7.616354465E0,-7.244270444E-1,4.522434771E-1
1.515331454E1,-6.887141705E0,-1.345364571E0,1.536790371E0
1.516331454E1,-6.549753666E0,-1.876571178E0,2.580060959E0
1.517331454E1,-6.349354744E0,-2.139183521E0,3.390629768E0
1.518331454E1,-6.198009014E0,-2.163111687E0,4.266402721E0
1.519331454E1,-6.121438503E0,-1.841875196E0,4.728217602E0
1.520331454E1,-6.467201233E0,-9.852447510E-1,4.719842434E0
1.521331454E1,-7.103692055E0,-3.068794906E-1,4.547559261E0
1.522331454E1,-8.075776100E0,2.991028428E-1,3.963112593E0
1.523331454E1,-9.032307625E0,8.237292171E-1,3.159722328E0
1.524331454E1,-9.949356079E0,1.377069473E0,2.241476536E0
1.525331454E1,-1.042792130E1,1.673181176E0,1.552941918E0
1.526331454E1,-1.089751244E1,1.782054663E0,1.080359459E0
1.527331454E1,-1.093101215E1,1.518844128E0,1.106082320E0
1.528331454E1,-1.077607632E1,8.386843204E-1,1.704287887E0
1.529331454E1,-1.034297562E1,2.123630047E-1,2.146960020E0
1.530331454E1,-9.470193863E0,-4.701896608E-1,2.678765059E0
1.531331454E1,-8.498109818E0,-8.799605370E-1,3.195016384E0
1.532331454E1,-7.850851059E0,-1.161117196E0,3.683750391E0
1.533331454E1,-7.222734928E0,-1.542772412E0,4.264608383E0
1.534331454E1,-6.711867332E0,-1.992024899E0,4.462614059E0
1.535331454E1,-6.409773827E0,-2.273779631E0,4.475774765E0
1.536331454E1,-6.336792469E0,-2.388635159E0,4.286143780E0
1.537331454E1,-6.741777897E0,-2.173879385E0,4.066602230E0
1.538331454E1,-7.236494064E0,-1.887937069E0,3.640679598E0
1.539331454E1,-7.685746193E0,-1.510469317E0,3.515654564E0
1.540331454E1,-7.997411251E0,-1.152144074E0,3.448655605E0
1.541331454E1,-8.212765694E0,-9.224331379E-1,3.464807272E0
1.542331454E1,-8.233104706E0,-8.745766878E-1,3.583850145E0
1.543331454E1,-8.076375008E0,-8.841479421E-1,3.708875179E0
1.544331454E1,-7.737790108E0,-9.260223508E-1,3.859622955E0
1.545331454E1,-7.371089935E0,-9.732806087E-1,4.054039955E0
1.546331454E1,-7.104888439E0,-9.152546525E-1,4.274777889E0
1.547331454E1,-6.990631580E0,-8.811569214E-1,4.371088982E0
1.548331454E1,-7.106683254E0,-8.721838593E-1,4.518247128E0
1.549331454E1,-7.561917782E0,-8.727820516E-1,4.601397991E0
1.550331454E1,-8.331210136E0,-9.278169870E-1,4.548755646E0
1.551331454E1,-9.067003250E0,-9.343972206E-1,4.443471432E0
1.552331454E1,-1.009352398E1,-8.979067206E-1,4.249652863E0
1.553331454E1,-1.104407310E1,-6.562315822E-1,4.011567116E0
1.554331454E1,-1.163689518E1,-4.612165689E-1,3.929612875E0
1.555331454E1,-1.215314579E1,-4.671986103E-1,3.940380573E0
1.556331454E1,-1.233619690E1,-7.070791125E-1,4.184448719E0
1.557331454E1,-1.211904812E1,-1.156929731E0,4.628915310E0
1.558331454E1,-1.174816132E1,-1.428515077E0,4.968098164E0
1.559331454E1,-1.104227829E1,-1.580459356E0,5.284548759E0
1.560331454E1,-1.080778122E1,-1.915454507E0,5.360520840E0
1.561331454E1,-1.132642555E1,-1.480558991E0,5.501697540E0
1.562331454E1,-1.173200989E1,-1.166501045E-1,5.642275810E0
1.563331454E1,-1.200000572E1,-4.331009090E-1,5.164907455E0
1.564331454E1,-1.297149181E1,-1.388435364E0,2.966501951E0
1.565331454E1,-1.363490200E1,-1.336989641E0,3.194418252E-1
1.566331454E1,-1.344467258E1,-1.192822099E0,-8.991031051E-1
1.567331454E1,-1.267418289E1,-1.416550994E0,-1.498505235E0
1.568331454E1,-1.180439186E1,-1.496112347E0,-1.430309772E0
1.569331454E1,-1.099741268E1,-1.335793257E0,-1.305882931E0
1.570331454E1,-9.963115692E0,-8.739784956E-1,-9.439685345E-1
1.571331454E1,-9.017950058E0,-2.919243574E-1,-2.871387303E-1
1.572331454E1,-8.334799767E0,2.745763958E-1,2.871387303E-1
1.573331454E1,-7.951947689E0,8.069794178E-1,7.495517135E-1
1.574331454E1,-7.509275436E0,1.540977836E0,1.402194023E0
1.575331454E1,-7.158128738E0,1.791027784E0,2.310270309E0
1.576331454E1,-6.996015072E0,1.728814363E0,3.081357241E0
1.577331454E1,-7.181458950E0,1.364507079E0,3.622733593E0
1.578331454E1,-7.688737392E0,7.357929349E-1,3.896113396E0
1.579331454E1,-8.293522835E0,1.740778536E-1,3.652045488E0
1.580331454E1,-8.734400749E0,-6.161518395E-2,3.244667530E0
1.581331454E1,-9.242277145E0,-2.542374134E-1,2.831307411E0
1.582331454E1,-9.390034676E0,-5.132604837E-1,2.210968018E0
1.583331454E1,-9.281160355E0,-6.233302951E-1,1.739582062E0
1.584331454E1,-9.246464729E0,-6.616154313E-1,1.578066587E0
1.585331454E1,-8.997611046E0,-9.385846853E-1,1.629512191E0
1.586331454E1,-8.644669533E0,-1.062413216E0,1.814357758E0
1.587331454E1,-8.432905197E0,-9.326026440E-1,2.239681959E0
1.588331454E1,-8.296514511E0,-5.778666735E-1,2.424527645E0
1.589331454E1,-8.237890244E0,1.405783296E-1,2.678166628E0
1.590331454E1,-8.266005516E0,8.733802438E-1,3.055036306E0
1.591331454E1,-8.273782730E0,1.548754454E0,3.198007345E0
1.592331454E1,-8.121239662E0,1.745564103E0,3.259622574E0
1.593331454E1,-8.103892326E0,2.243869543E0,3.346960783E0
1.594331454E1,-8.085348129E0,2.425724030E0,3.379263878E0
1.595331454E1,-8.094919205E0,2.320439816E0,3.394218922E0
1.596331454E1,-8.146365166E0,2.191227436E0,3.303889751E0
1.597331454E1,-8.169694901E0,1.994417667E0,3.242872953E0
1.598331454E1,-8.193622589E0,1.879562140E0,3.301496983E0
1.599331454E1,-8.274978638E0,1.663609982E0,3.311666489E0
1.600331454E1,-8.226524353E0,1.634896040E0,3.235694408E0
1.601331454E1,-8.054241180E0,1.611566067E0,3.290131092E0
1.602331454E1,-7.792226791E0,1.511665702E0,3.440280676E0
1.603331454E1,-7.611568928E0,1.425524116E0,3.571287870E0
1.604331454E1,-7.536194801E0,1.334596872E0,3.773481369E0
1.605331454E1,-7.638488293E0,1.272383451E0,3.997808456E0
1.606331454E1,-7.872984886E0,1.185643673E0,4.092324734E0
1.607331454E1,-8.322834969E0,1.127019525E0,4.161118507E0
1.608331454E1,-8.873184204E0,1.082752228E0,4.157529354E0
1.609331454E1,-9.494720459E0,8.943174481E-1,4.183252335E0
1.610331454E1,-9.995418549E0,7.064808607E-1,4.104887009E0
1.611331454E1,-1.055414295E1,5.138586760E-1,4.030709743E0
1.612331454E1,-1.093819046E1,2.733799815E-1,4.259224415E0
1.613331454E1,-1.131805134E1,1.764706671E-1,4.619942188E0
1.614331454E1,-1.143470097E1,2.338984162E-1,4.814957142E0
1.615331454E1,-1.140239811E1,2.003988922E-1,5.015954494E0
1.616331454E1,-1.121336555E1,2.392822690E-2,5.334199905E0
1.617331454E1,-1.110509014E1,-1.770688742E-1,5.580062389E0
1.618331454E1,-1.148315620E1,-3.553341627E-1,5.062614441E0
1.619331454E1,-1.183908844E1,-1.558325768E0,5.020740032E0
1.620331454E1,-1.206760311E1,-2.090728760E0,4.440480709E0
1.621331454E1,-1.275254822E1,-2.192423820E0,2.711068153E0
1.622331454E1,-1.369950771E1,-1.969891191E0,1.800599098E-1
1.623331454E1,-1.393639755E1,-1.151545882E0,-9.978070259E-1
1.624331454E1,-1.285364532E1,-6.317051649E-1,-1.409970760E0
1.625331454E1,-1.176550865E1,-2.171486616E-1,-1.243071318E0
1.626331454E1,-1.031067276E1,1.884347796E-1,-8.201399446E-1
1.627331454E1,-9.373284340E0,2.721835673E-1,-2.452643216E-1
1.628331454E1,-8.776275635E0,7.238288224E-2,1.198205948E0
1.629331454E1,-8.502895355E0,-8.374879137E-3,2.309672117E0
1.630331454E1,-8.289336205E0,-4.342973232E-1,3.303291559E0
1.631331454E1,-8.113463402E0,-5.389832854E-1,4.103092670E0
1.632331454E1,-8.240880966E0,-3.523431420E-1,4.444668293E0
1.633331454E1,-8.595617294E0,1.543370634E-1,4.390829563E0
1.634331454E1,-8.885149002E0,8.530412912E-1,3.910470486E0
1.635331454E1,-8.900103569E0,1.307677627E0,3.252444267E0
1.636331454E1,-8.739186287E0,1.652842283E0,2.768495798E0
1.637331454E1,-8.391629219E0,1.912463546E0,2.301297188E0
1.638331454E1,-8.305487633E0,1.749751568E0,2.283949137E0
1.639331454E1,-8.112865448E0,1.530210137E0,2.219941139E0
1.640331454E1,-8.199604988E0,1.625324726E0,2.237289190E0
1.641331454E1,-8.097909927E0,1.439282775E0,2.100898266E0
1.642331454E1,-7.997411251E0,1.012762189E0,2.248056889E0
1.643331454E1,-7.882555962E0,3.427718580E-1,2.420938253E0
1.644331454E1,-7.546962738E0,-4.133601189E-1,2.548356056E0
1.645331454E1,-7.134200573E0,-1.063609719E0,3.167499065E0
1.646331454E1,-6.718447685E0,-1.498505235E0,3.321835995E0
1.647331454E1,-6.643074036E0,-1.780858278E0,3.495913982E0
1.648331454E1,-6.626324177E0,-1.929213285E0,3.851248026E0
1.649331454E1,-6.698108673E0,-2.111665964E0,3.933202267E0
1.650331454E1,-7.177271366E0,-2.165504456E0,4.063611031E0
1.651331454E1,-7.448856831E0,-2.285743713E0,3.991228104E0
1.652331454E1,-7.878368378E0,-2.349153519E0,3.893122435E0
1.653331454E1,-8.279166222E0,-2.148754835E0,3.735794306E0
1.654331454E1,-8.489734650E0,-1.852044702E0,3.669991732E0
1.655331454E1,-8.490332603E0,-1.674975872E0,3.644867182E0
1.656331454E1,-8.227122307E0,-1.463809252E0,3.583251953E0
1.657331454E1,-7.782655716E0,-1.247258782E0,3.594019651E0
1.658331454E1,-7.458428383E0,-1.097707391E0,3.671786308E0
1.659331454E1,-7.207181931E0,-8.578268886E-1,3.896711588E0
1.660331454E1,-7.094120979E0,-9.008977413E-1,4.122235298E0
1.661331454E1,-7.345367432E0,-5.036891699E-1,4.308875561E0
1.662331454E1,-7.766504288E0,-5.958128572E-1,4.383052826E0
1.663331454E1,-8.616554260E0,-6.406782866E-1,4.291527271E0
1.664331454E1,-9.700503349E0,-4.947160780E-1,4.015156269E0
1.665331454E1,-1.078983593E1,-1.429711580E-1,3.804588079E0
1.666331454E1,-1.135992527E1,1.381855011E-1,3.822534084E0
1.667331454E1,-1.156869888E1,4.923232496E-1,4.124029636E0
1.668331454E1,-1.142991543E1,8.135597110E-1,4.676771641E0
1.669331454E1,-1.117508030E1,9.002995491E-1,5.108078003E0
1.670331454E1,-1.069053364E1,7.812566161E-1,5.499304771E0
1.671331454E1,-1.021914768E1,7.058826685E-1,5.790032387E0
1.672331454E1,-9.737591743E0,7.405785918E-1,6.003592014E0
1.673331454E1,-9.588638306E0,4.630111754E-1,5.992226124E0
1.674331454E1,-1.063250732E1,3.409772366E-2,5.672784328E0
1.675331454E1,-1.195454216E1,1.204786181E0,5.640480995E0
1.676331454E1,-1.318564892E1,7.710871100E-1,5.362913609E0
1.677331454E1,-1.423310757E1,-6.921239495E-1,3.937389612E0
1.678331454E1,-1.506700611E1,-1.733600020E0,1.311266780E0
1.679331454E1,-1.468774319E1,-2.096710920E0,-6.574280262E-1
1.680331454E1,-1.360499096E1,-2.520240545E0,-1.439880967E0
1.681331454E1,-1.201615715E1,-2.799004316E0,-1.474576950E0
1.682331454E1,-1.057208824E1,-2.489133835E0,-9.409775138E-1
1.683331454E1,-9.296713829E0,-2.160718918E0,-2.129612118E-1
1.684331454E1,-8.345566750E0,-1.880758643E0,4.606183469E-1
1.685331454E1,-7.361518860E0,-1.174277663E0,1.030708313E0
1.686331454E1,-6.979863644E0,-3.690928817E-1,1.505683661E0
1.687331454E1,-6.636493683E0,5.084748268E-1,2.051247120E0
1.688331454E1,-6.480959892E0,1.202991605E0,2.754138947E0
1.689331454E1,-6.660421848E0,1.729412556E0,3.528217077E0
1.690331454E1,-7.099504948E0,1.829312921E0,4.049852371E0
1.691331454E1,-7.682755470E0,1.449452281E0,4.096512318E0
1.692331454E1,-8.173283577E0,1.180259824E0,3.961317778E0
1.693331454E1,-8.739186287E0,6.711867452E-1,3.659822226E0
1.694331454E1,-9.271589279E0,5.551348329E-1,3.260220766E0
1.695331454E1,-9.535398483E0,7.537391037E-2,2.846262455E0
1.696331454E1,-9.677771568E0,-3.128615618E-1,2.193620205E0
1.697331454E1,-9.596415520E0,-5.952146053E-1,1.703689694E0
1.698331454E1,-9.299705505E0,-7.716853023E-1,1.668993831E0
1.699331454E1,-9.114859581E0,-8.482556343E-1,1.962114573E0
1.700331454E1,-8.849854469E0,-8.333004713E-1,2.251047850E0
1.701331454E1,-8.561519623E0,-5.114658475E-1,2.618346214E0
1.702331454E1,-8.320442200E0,-2.189432681E-1,2.962314367E0
1.703331454E1,-8.233104706E0,3.894318938E-1,3.192623615E0
1.704331454E1,-8.011170387E0,1.381256819E0,3.306282759E0
1.705331454E1,-7.826922894E0,2.042872429E0,3.412763357E0
1.706331454E1,-7.741977692E0,2.311466694E0,3.468994617E0
1.707331454E1,-7.516454220E0,2.345564365E0,3.355335474E0
1.708331454E1,-7.554141045E0,2.264208317E0,3.360121250E0
1.709331454E1,-7.712665558E0,2.172683001E0,3.464807272E0
1.710331454E1,-7.812565804E0,1.990230203E0,3.413361549E0
1.711331454E1,-7.892725468E0,1.741376638E0,3.395415306E0
1.712331454E1,-7.940581799E0,1.549352646E0,3.424727440E0
1.713331454E1,-7.902296543E0,1.353141189E0,3.479164124E0
1.714331454E1,-7.811369419E0,1.271785259E0,3.504288673E0
1.715331454E1,-7.710272789E0,1.075573802E0,3.463610888E0
1.716331454E1,-7.680960655E0,8.841479421E-1,3.422334671E0
1.717331454E1,-7.718647480E0,7.262216806E-1,3.427718401E0
1.718331454E1,-7.871788502E0,6.107679605E-1,3.418147087E0
1.719331454E1,-8.243872643E0,4.803591371E-1,3.334996462E0
1.720331454E1,-8.868997574E0,3.260220885E-1,3.241078377E0
1.721331454E1,-9.442676544E0,1.764706671E-1,3.252444267E0
1.722331454E1,-1.019342422E1,-5.563312769E-2,3.282354355E0
1.723331454E1,-1.082094193E1,-2.721835673E-1,3.456432343E0
1.724331454E1,-1.133539867E1,-4.073780477E-1,3.859622955E0
1.725331454E1,-1.162552929E1,-3.655036688E-1,4.287340164E0
1.726331454E1,-1.186002541E1,-1.214357466E-1,4.847858906E0
1.727331454E1,-1.175354481E1,1.465603858E-1,5.276772022E0
1.728331454E1,-1.137428284E1,2.243271172E-1,5.699703693E0
1.729331454E1,-1.089870930E1,1.441675574E-1,6.028118610E0
1.730331454E1,-1.032682419E1,5.922235921E-2,6.362515450E0
1.731331454E1,-1.035254669E1,1.405783296E-1,5.936593056E0
1.732331454E1,-1.072821999E1,1.537388563E-1,5.647061348E0
1.733331454E1,-1.070788097E1,-5.599204898E-1,5.647659779E0
1.734331454E1,-1.112064362E1,-1.824527234E-1,4.490729809E0
1.735331454E1,-1.263649654E1,2.404786795E-1,2.513062000E0
1.736331454E1,-1.354158115E1,9.044869542E-1,1.192822099E0
1.737331454E1,-1.358405399E1,1.675574064E0,-3.469592929E-1
1.738331454E1,-1.275613785E1,2.098505497E0,-1.175474167E0
1.739331454E1,-1.145145130E1,1.814357758E0,-1.628315806E0
1.740331454E1,-1.044766140E1,1.328016520E0,-1.406979680E0
1.741331454E1,-9.369096756E0,7.507480979E-1,-9.224331379E-1
1.742331454E1,-8.596215248E0,1.447657645E-1,8.554340899E-2
1.743331454E1,-8.066802979E0,-5.150550604E-1,1.102493048E0
1.744331454E1,-7.670193195E0,-1.084546804E0,1.921436548E0
1.745331454E1,-7.660023689E0,-1.529611826E0,2.632104874E0
1.746331454E1,-7.601997375E0,-1.941177368E0,3.242274761E0
1.747331454E1,-7.671389580E0,-1.975275040E0,3.591028690E0
1.748331454E1,-7.816154957E0,-1.745564103E0,3.722035646E0
1.749331454E1,-8.065607071E0,-9.990034699E-1,3.590430260E0
1.750331454E1,-8.228319168E0,5.922235921E-2,3.333201885E0
1.751331454E1,-8.084749222E0,8.931210637E-1,3.046661377E0
1.752331454E1,-8.099704742E0,1.668993831E0,2.959323406E0
1.753331454E1,-8.458029747E0,2.175673962E0,2.729014158E0
1.754331454E1,-8.862417221E0,2.365903378E0,2.376072884E0
1.755331454E1,-9.078369141E0,2.207378864E0,1.950150490E0
1.756331454E1,-9.257830620E0,1.814357758E0,1.746162295E0
1.757331454E1,-9.461818695E0,8.416753411E-1,1.814357758E0
1.758331454E1,-9.399605751E0,3.056831062E-1,1.971087694E0
1.759331454E1,-8.973084450E0,-3.978067636E-1,2.017747641E0
1.760331454E1,-8.261219978E0,-9.421738982E-1,2.246262312E0
1.761331454E1,-7.631907940E0,-1.476969719E0,2.656033039E0
1.762331454E1,-7.335197926E0,-1.907079697E0,2.761317253E0
1.763331454E1,-7.022336483E0,-2.212762833E0,3.209971666E0
1.764331454E1,-7.018746853E0,-2.376072884E0,3.383451223E0
1.765331454E1,-7.130013466E0,-2.519642353E0,3.612564087E0
1.766331454E1,-7.307680130E0,-2.572882652E0,3.736392498E0
1.767331454E1,-7.848458290E0,-2.521436930E0,3.799204111E0
1.768331454E1,-8.254041672E0,-2.321038008E0,3.570091486E0
1.769331454E1,-8.455039024E0,-2.053640127E0,3.514458179E0
1.770331454E1,-8.522636414E0,-1.627717614E0,3.525225878E0
1.771331454E1,-8.303692818E0,-1.128814101E0,3.508476257E0
1.772331454E1,-7.849056244E0,-9.888339639E-1,3.453441381E0
1.773331454E1,-7.511070251E0,-7.004988194E-1,3.506083488E0
1.774331454E1,-7.398009300E0,-7.435696125E-1,3.741776466E0
1.775331454E1,-7.289135933E0,-2.404786795E-1,3.820141315E0
1.776331454E1,-7.486543655E0,-2.027917206E-1,3.914059639E0
1.777331454E1,-7.887341499E0,-3.756731451E-1,3.878765583E0
1.778331454E1,-8.708678246E0,-7.226324677E-1,3.813561201E0
1.779331454E1,-9.726823807E0,-9.212366939E-1,3.789034605E0
1.780331454E1,-1.076351452E1,-8.327022791E-1,3.608974695E0
1.781331454E1,-1.142333508E1,-6.616154313E-1,3.579064369E0
1.782331454E1,-1.192343521E1,-3.804588020E-1,3.860221148E0
1.783331454E1,-1.210469151E1,-8.853443712E-2,4.315455437E0
1.784331454E1,-1.207478142E1,4.546362907E-2,4.759324074E0
1.785331454E1,-1.170568848E1,1.998006850E-1,5.209773064E0
1.786331454E1,-1.114158058E1,5.838487148E-1,5.775077343E0
1.787331454E1,-1.038843918E1,7.776673436E-1,6.065805435E0
1.788331454E1,-1.025444126E1,4.516452849E-1,6.092724800E0
1.789331454E1,-1.072163963E1,7.238288522E-1,5.227719307E0
1.790331454E1,-1.156451225E1,2.431705952E0,4.244269371E0
1.791331454E1,-1.230150127E1,1.587039590E0,3.346960783E0
1.792331454E1,-1.346142197E1,5.497509837E-1,1.459023595E0
1.793331454E1,-1.456750393E1,-2.285145670E-1,-6.269195080E-1
1.794331454E1,-1.443889046E1,-1.205384374E0,-1.598405480E0
1.795331454E1,-1.361815166E1,-1.825723648E0,-1.755135417E0
1.796331454E1,-1.203111267E1,-2.109871387E0,-1.622931957E0
1.797331454E1,-1.032263660E1,-2.043470621E0,-1.162313581E0
1.798331454E1,-8.991629601E0,-1.786840320E0,-1.657029688E-1
1.799331454E1,-8.297710419E0,-1.493121386E0,3.002992272E-1
1.800331454E1,-7.608577728E0,-1.016949654E0,7.268198729E-1
1.801331454E1,-6.812366009E0,-5.216353536E-1,1.522433400E0
1.802331454E1,-6.272186279E0,-1.902294010E-1,2.732603550E0
1.803331454E1,-6.078367710E0,-6.999006122E-2,3.592823267E0
1.804331454E1,-6.355337143E0,-2.093719840E-1,4.246662140E0
1.805331454E1,-6.950551510E0,-3.451646566E-1,4.544568539E0
1.806331454E1,-7.548159122E0,-1.597209126E-1,4.510470867E0
1.807331454E1,-8.376075745E0,-5.401797295E-1,4.029513359E0
1.808331454E1,-8.790034294E0,-6.125625968E-1,3.157329559E0
1.809331454E1,-9.032905579E0,-6.131607890E-1,2.381456852E0
1.810331454E1,-9.359525681E0,-7.286145091E-1,2.012363911E0
1.811331454E1,-9.461818695E0,-6.957131624E-1,1.591227055E0
1.812331454E1,-9.198608398E0,-5.174478889E-1,1.496112347E0
1.813331454E1,-9.187840462E0,-3.403790295E-1,1.967498422E0
1.814331454E1,-9.104091644E0,-1.920240223E-1,2.239681959E0
1.815331454E1,-8.931210518E0,-1.914258115E-2,2.708076954E0
1.816331454E1,-8.681160927E0,6.711867452E-1,2.948555708E0
1.817331454E1,-8.368897438E0,1.337587833E0,3.203989506E0
1.818331454E1,-8.104490280E0,1.869990945E0,3.474378586E0
1.819331454E1,-7.847261906E0,2.205584288E0,3.564707518E0
1.820331454E1,-7.732406139E0,2.282752752E0,3.502494097E0
1.821331454E1,-7.631907940E0,2.158325911E0,3.499503136E0
1.822331454E1,-7.569096088E0,2.000399828E0,3.448057413E0
1.823331454E1,-7.583453178E0,1.751546144E0,3.521636724E0
1.824331454E1,-7.737192154E0,1.703091502E0,3.655036688E0
1.825331454E1,-7.813762188E0,1.515853167E0,3.741776466E0
1.826331454E1,-7.867600918E0,1.635494232E0,3.830909014E0
1.827331454E1,-7.801798344E0,1.937588096E0,3.891327858E0
1.828331454E1,-7.628916740E0,1.966900229E0,3.830310822E0
1.829331454E1,-7.456035137E0,1.909472466E0,3.722035646E0
1.830331454E1,-7.273582458E0,1.804786444E0,3.705285788E0
1.831331454E1,-7.143772125E0,1.546361685E0,3.669393539E0
1.832331454E1,-7.199405193E0,1.320838094E0,3.489333630E0
1.833331454E1,-7.556533813E0,1.061815023E0,3.359523058E0
1.834331454E1,-8.267800331E0,7.339983582E-1,3.256631613E0
1.835331454E1,-9.390632629E0,5.162515044E-1,3.193221807E0
1.836331454E1,-1.044646549E1,3.894318938E-1,3.124428272E0
1.837331454E1,-1.162852001E1,1.328016520E-1,3.266202927E0
1.838331454E1,-1.259342575E1,-9.930214286E-2,3.867997885E0
1.839331454E1,-1.303849030E1,-7.657032460E-2,4.514657974E0
1.840331454E1,-1.293200970E1,-2.871387079E-2,4.950151920E0
1.841331454E1,-1.246720409E1,-1.375873089E-1,5.484349728E0
1.842331454E1,-1.212383366E1,-2.422732860E-1,5.654838085E0
1.843331454E1,-1.247797203E1,-4.390829504E-1,5.127819061E0
1.844331454E1,-1.232004547E1,-1.291526079E0,5.307280540E0
1.845331454E1,-1.210708427E1,-1.233500123E0,4.950151920E0
1.846331454E1,-1.294397449E1,-9.577272534E-1,3.628117323E0
1.847331454E1,-1.373540020E1,-5.330012441E-1,1.951945066E0
1.848331454E1,-1.426361561E1,6.484549642E-1,6.065805554E-1
1.849331454E1,-1.365823174E1,1.603191137E0,-6.287141442E-1
1.850331454E1,-1.224826050E1,1.874776483E0,-1.815554142E0
1.851331454E1,-1.117986584E1,1.795813441E0,-2.070389748E0
1.852331454E1,-9.954740524E0,1.396211982E0,-1.451845169E0
1.853331454E1,-8.896514893E0,8.715856671E-1,-8.291130662E-1
1.854331454E1,-8.020143509E0,2.464607358E-1,3.900300860E-1
1.855331454E1,-7.360920429E0,-4.175475538E-1,1.293320656E0
1.856331454E1,-7.131209850E0,-9.152546525E-1,2.067398787E0
1.857331454E1,-7.328617573E0,-1.116850019E0,2.937189817E0
1.858331454E1,-7.345965385E0,-1.227517962E0,3.367897987E0
1.859331454E1,-7.444669247E0,-1.016949654E0,3.719642878E0
1.860331454E1,-7.728219032E0,-6.771687865E-1,3.786641836E0
1.861331454E1,-8.176275253E0,-2.135594189E-1,3.464807272E0
1.862331454E1,-8.553144455E0,3.170489967E-1,3.157329559E0
1.863331454E1,-8.876175880E0,9.870393276E-1,2.729612350E0
1.864331454E1,-8.846264839E0,1.681556106E0,2.371287346E0
1.865331454E1,-8.808578491E0,2.169692039E0,2.325225353E0
1.866331454E1,-8.737391472E0,2.112862349E0,2.349751949E0
1.867331454E1,-9.086145401E0,1.690529227E0,2.446063042E0
1.868331454E1,-9.336195946E0,8.805587292E-1,2.259422779E0
1.869331454E1,-9.388837814E0,5.114658475E-1,2.337787628E0
1.870331454E1,-9.014959335E0,-1.914258115E-2,2.420938253E0
1.871331454E1,-8.485547066E0,-8.751748800E-1,2.817548752E0
1.872331454E1,-7.779066563E0,-1.793420553E0,3.206382275E0
1.873331454E1,-7.353144169E0,-2.261815548E0,3.308675528E0
1.874331454E1,-7.039085865E0,-2.529213428E0,3.580260992E0
1.875331454E1,-6.842874527E0,-2.495115757E0,3.624528170E0
1.876331454E1,-6.845267296E0,-2.370688915E0,3.838685751E0
1.877331454E1,-6.884748936E0,-2.164906263E0,3.960719585E0
1.878331454E1,-7.393822193E0,-1.855035782E0,4.160520554E0
1.879331454E1,-7.700103283E0,-1.543968797E0,4.060619831E0
1.880331454E1,-8.149953842E0,-1.348953724E0,4.056432724E0
1.881331454E1,-8.283353806E0,-1.018744230E0,3.914059639E0
1.882331454E1,-8.176873207E0,-6.209374666E-1,3.672982693E0
1.883331454E1,-7.742575645E0,-4.474578202E-1,3.727419376E0
1.884331454E1,-7.365706444E0,-3.170489967E-1,3.844069481E0
1.885331454E1,-7.013961315E0,-1.968096644E-1,4.046263218E0
1.886331454E1,-6.775277138E0,-3.589234054E-1,4.168296814E0
1.887331454E1,-6.890132904E0,-5.264209956E-2,4.089334011E0
1.888331454E1,-7.071389198E0,-1.441675574E-1,4.064807415E0
1.889331454E1,-7.587640762E0,-3.846462369E-1,4.095914364E0
1.890331454E1,-8.414361000E0,-6.741777658E-1,4.063611031E0
1.891331454E1,-9.388837814E0,-8.392825127E-1,3.952943087E0
1.892331454E1,-1.021137047E1,-8.937192559E-1,3.981058598E0
1.893331454E1,-1.111585712E1,-8.524430394E-1,4.046263218E0
1.894331454E1,-1.175234795E1,-8.877372146E-1,4.161716938E0
1.895331454E1,-1.190728378E1,-8.644071817E-1,4.341776848E0
1.896331454E1,-1.167218876E1,-7.298108935E-1,4.882554531E0
1.897331454E1,-1.114816093E1,-3.690928817E-1,5.624329567E0
1.898331454E1,-1.050748253E1,-1.375873089E-1,6.238687038E0
1.899331454E1,-1.004148006E1,6.460621208E-2,6.555736065E0
1.900331454E1,-9.979267120E0,-1.220339537E-1,6.581458569E0
1.901331454E1,-1.085145092E1,8.195417374E-2,6.153143406E0
1.902331454E1,-1.164526939E1,1.914258122E0,5.618945599E0
1.903331454E1,-1.229312611E1,2.080559254E0,5.230710506E0
1.904331454E1,-1.374078369E1,4.199403822E-1,3.646063566E0
1.905331454E1,-1.466501141E1,-2.811566591E-1,1.518245935E0
1.906331454E1,-1.432702541E1,-6.634100676E-1,-9.152546525E-2
1.907331454E1,-1.336630726E1,-1.332203984E0,-1.083350420E0
1.908331454E1,-1.198564816E1,-1.989632010E0,-1.336989641E0
1.909331454E1,-1.062592697E1,-1.804786444E0,-9.367900491E-1
1.910331454E1,-9.679565430E0,-1.596610904E0,-3.439682424E-1
1.911331454E1,-8.632705688E0,-1.460219979E0,3.361915946E-1
1.912331454E1,-7.607979774E0,-9.978070259E-1,6.550351977E-1
1.913331454E1,-6.961917400E0,-3.834498227E-1,1.037288666E0
1.914331454E1,-6.612565517E0,1.058823988E-1,1.485344648E0
1.915331454E1,-6.275177479E0,6.191428304E-1,2.306082726E0
1.916331454E1,-6.273981094E0,9.110672474E-1,3.317050457E0
1.917331454E1,-6.499504566E0,8.721838593E-1,4.051646709E0
1.918331454E1,-6.914061069E0,6.077769399E-1,4.523631096E0
1.919331454E1,-7.473981380E0,2.093719840E-1,4.675575256E0
1.920331454E1,-8.207980156E0,5.443671346E-2,4.427918434E0
1.921331454E1,-8.758927345E0,-1.339980662E-1,3.966701746E0
1.922331454E1,-9.216554642E0,-3.696911037E-1,3.167499065E0
1.923331454E1,-9.568299294E0,-6.813562512E-1,2.416750908E0
1.924331454E1,-9.616155624E0,-8.494520187E-1,1.810768485E0
1.925331454E1,-9.476176262E0,-1.064806104E0,1.679761529E0
1.926331454E1,-9.491728783E0,-1.088734269E0,1.847259045E0
1.927331454E1,-9.148957253E0,-1.015753269E0,2.059023857E0
1.928331454E1,-8.736793518E0,-6.125625968E-1,2.412563324E0
1.929331454E1,-8.481958389E0,-1.333998591E-1,2.788236618E0
1.930331454E1,-8.266005516E0,4.037888348E-1,3.163311481E0
1.931331454E1,-7.978269100E0,1.185045362E0,3.460619688E0
1.932331454E1,-7.692924976E0,1.645663738E0,3.502494097E0
1.933331454E1,-7.436294556E0,1.962114573E0,3.659822226E0
1.934331454E1,-7.370491982E0,1.981855392E0,3.812962770E0
1.935331454E1,-7.472187042E0,2.168495417E0,3.896711588E0
1.936331454E1,-7.619943619E0,2.120040894E0,3.843471289E0
1.937331454E1,-7.763513088E0,2.157727718E0,3.847060680E0
1.938331454E1,-7.897511005E0,2.219941139E0,3.826721668E0
1.939331454E1,-7.911269665E0,2.219941139E0,3.778865099E0
1.940331454E1,-7.858029366E0,2.229512453E0,3.650250912E0
1.941331454E1,-7.737192154E0,2.138585329E0,3.556332588E0
1.942331454E1,-7.597810268E0,1.976471543E0,3.471985579E0
1.943331454E1,-7.587640762E0,1.765304923E0,3.435495138E0
1.944331454E1,-7.716254711E0,1.597807288E0,3.464807272E0
1.945331454E1,-8.018348694E0,1.395613790E0,3.607180119E0
1.946331454E1,-8.589634895E0,9.870393276E-1,3.419941664E0
1.947331454E1,-9.199805260E0,6.843472719E-1,3.188436270E0
1.948331454E1,-1.022572803E1,3.511467278E-1,3.035893679E0
1.949331454E1,-1.123430252E1,8.973085321E-3,3.007179976E0
1.950331454E1,-1.194736385E1,-3.326023519E-1,3.219542980E0
1.951331454E1,-1.217049408E1,-4.863412082E-1,3.640081406E0
1.952331454E1,-1.222732353E1,-3.906283081E-1,4.226323128E0
1.953331454E1,-1.202094269E1,4.546362907E-2,4.606781960E0
1.954331454E1,-1.151665497E1,4.055834413E-1,4.861019135E0
1.955331454E1,-1.101775169E1,5.557330847E-1,5.193023205E0
1.956331454E1,-1.049073315E1,8.009973764E-1,5.624927998E0
1.957331454E1,-1.057328510E1,8.392825127E-1,5.189434052E0
1.958331454E1,-1.082752228E1,5.700899959E-1,5.385645390E0
1.959331454E1,-1.049312592E1,-2.273181453E-2,5.583651543E0
1.960331454E1,-1.087478065E1,-1.579262912E-1,4.229313850E0
1.961331454E1,-1.228774261E1,-1.178465188E-1,1.342971683E0
1.962331454E1,-1.314437294E1,4.737788737E-1,-5.832505226E-1
1.963331454E1,-1.328495121E1,5.742774606E-1,-1.593619823E0
1.964331454E1,-1.220160103E1,6.340979934E-1,-1.944766641E0
1.965331454E1,-1.093639565E1,3.930211067E-1,-1.661815286E0
1.966331454E1,-1.000020409E1,9.810572863E-2,-1.385444283E0
1.967331454E1,-9.212965012E0,-1.154536903E-1,-4.468596280E-1
1.968331454E1,-8.547162056E0,-5.688936114E-1,7.316055298E-1
1.969331454E1,-8.373085022E0,-6.885347366E-1,1.775474429E0
1.970331454E1,-8.411968231E0,-9.134600163E-1,2.550748825E0
1.971331454E1,-8.365307808E0,-1.071386337E0,3.431307554E0
1.972331454E1,-8.370093346E0,-9.326026440E-1,3.989433527E0
1.973331454E1,-8.434102058E0,-6.502495408E-1,4.164109707E0
1.974331454E1,-8.582456589E0,-9.032905847E-2,4.015754700E0
1.975331454E1,-8.704490662E0,5.994020700E-1,3.517449379E0
1.976331454E1,-8.726624489E0,1.418345571E0,3.067000389E0
1.977331454E1,-8.533403397E0,1.892722726E0,2.630310297E0
1.978331454E1,-8.546564102E0,2.088934183E0,2.437688112E0
1.979331454E1,-8.663812637E0,2.036292076E0,2.140978098E0
1.980331454E1,-8.723034859E0,1.657627940E0,1.861017823E0
1.981331454E1,-8.762516975E0,1.250249863E0,1.558325768E0
1.982331454E1,-8.779266357E0,6.514459848E-1,1.409372568E0
1.983331454E1,-8.755337715E0,-3.732803464E-1,1.655833244E0
1.984331454E1,-8.502895355E0,-8.518448472E-1,1.914258122E0
1.985331454E1,-7.917252064E0,-1.243071318E0,2.351546526E0
1.986331454E1,-7.431509018E0,-1.730608940E0,2.783450842E0
1.987331454E1,-7.164709091E0,-2.218146563E0,3.032304525E0
1.988331454E1,-7.136593342E0,-2.184647083E0,3.089732170E0
1.989331454E1,-7.152745247E0,-2.160718918E0,3.333201885E0
1.990331454E1,-7.240083218E0,-2.247458696E0,3.552743435E0
1.991331454E1,-7.532605648E0,-2.233700037E0,3.665804386E0
1.992331454E1,-7.710272789E0,-2.147558212E0,3.687339783E0
1.993331454E1,-8.059624672E0,-1.942373753E0,3.664607763E0
1.994331454E1,-8.226524353E0,-1.530808330E0,3.512065411E0
1.995331454E1,-8.150551796E0,-1.234098315E0,3.496512175E0
1.996331454E1,-7.940581799E0,-9.607182741E-1,3.491128206E0
1.997331454E1,-7.640282631E0,-6.340979934E-1,3.543172121E0
1.998331454E1,-7.459624767E0,-3.942175210E-1,3.623929977E0
1.999331454E1,-7.403393269E0,-2.452643216E-1,3.733401537E0
2.000331454E1,-7.462615490E0,-5.138586760E-1,4.064209461E0
2.001331454E1,-7.769495010E0,-1.220339537E-1,4.025924206E0
2.002331454E1,-8.294121742E0,-2.907279432E-1,3.861417532E0
2.003331454E1,-8.972486496E0,-5.892325640E-1,3.844069481E0
2.004331454E1,-9.988838196E0,-7.639086246E-1,3.613760471E0
2.005331454E1,-1.098903847E1,-6.897311211E-1,3.061616659E0
2.006331454E1,-1.172483063E1,-7.202396393E-1,2.985046148E0
2.007331454E1,-1.203350544E1,-7.782655358E-1,3.351148129E0
2.008331454E1,-1.208315659E1,-8.548358679E-1,4.225724697E0
2.009331454E1,-1.178345490E1,-6.771687865E-1,5.048855782E0
2.010331454E1,-1.138086224E1,-4.606183469E-1,5.451447964E0
2.011331454E1,-1.083051395E1,5.802594870E-2,5.886343479E0
2.012331454E1,-1.045005512E1,1.878365725E-1,6.174678802E0
2.013331454E1,-1.084128094E1,7.716853172E-2,6.053243160E0
2.014331454E1,-1.129531956E1,1.254437327E0,5.678168297E0
2.015331454E1,-1.187498093E1,2.948555708E0,4.682754040E0
2.016331454E1,-1.270289707E1,7.094719410E-1,3.550948858E0
2.017331454E1,-1.381555939E1,-8.315058798E-2,1.040279627E0
2.018331454E1,-1.411825180E1,-5.581258535E-1,-5.545366406E-1
2.019331454E1,-1.360678577E1,-1.356730461E0,-1.496112347E0
2.020331454E1,-1.248215961E1,-2.014756680E0,-1.440479279E0
2.021331454E1,-1.145982552E1,-2.175673962E0,-1.226321578E0
2.022331454E1,-1.017188931E1,-2.043470621E0,-8.267202377E-1
2.023331454E1,-9.040681839E0,-1.576271892E0,-1.100698411E-1
2.024331454E1,-8.197810173E0,-8.985049129E-1,1.968096644E-1
2.025331454E1,-7.761718273E0,-2.368894368E-1,4.911268353E-1
2.026331454E1,-7.132406235E0,4.157529473E-1,1.212562919E0
2.027331454E1,-6.710670948E0,9.008977413E-1,2.258226395E0
2.028331454E1,-6.632904530E0,1.178465128E0,3.207578659E0
2.029331454E1,-6.828517437E0,1.101296663E0,3.813561201E0
2.030331454E1,-7.127022266E0,7.609176040E-1,4.153341770E0
2.031331454E1,-7.633104324E0,4.432703853E-1,4.142574310E0
2.032331454E1,-8.158926964E0,2.841476798E-1,3.542573929E0
2.033331454E1,-8.647661209E0,7.238288224E-2,3.129812002E0
2.034331454E1,-9.197412491E0,-2.111666054E-1,2.564507723E0
2.035331454E1,-9.464211464E0,-4.899304509E-1,1.852642894E0
2.036331454E1,-9.566504478E0,-5.377869010E-1,1.503290772E0
2.037331454E1,-9.346364975E0,-6.813562512E-1,1.496112347E0
2.038331454E1,-9.157930374E0,-7.429714203E-1,1.865803480E0
2.039331454E1,-8.763114929E0,-9.002995491E-1,2.170888424E0
2.040331454E1,-8.474181175E0,-6.406782866E-1,2.524427891E0
2.041331454E1,-8.191229820E0,-4.127619043E-2,2.823530674E0
2.042331454E1,-8.051250458E0,8.877372146E-1,3.084946632E0
2.043331454E1,-7.747361660E0,1.597209096E0,3.125026464E0
2.044331454E1,-7.509275436E0,2.076970100E0,3.108874798E0
2.045331454E1,-7.458428383E0,2.570489645E0,3.225524902E0
2.046331454E1,-7.617550850E0,2.704487801E0,3.366701365E0
2.047331454E1,-7.732406139E0,2.703889608E0,3.341576815E0
2.048331454E1,-7.801798344E0,2.416750908E0,3.171686411E0
2.049331454E1,-7.950153351E0,2.296511650E0,3.185445070E0
2.050331454E1,-8.054839134E0,2.123630047E0,3.186043262E0
2.051331454E1,-8.093722343E0,1.970489502E0,3.301496983E0
2.052331454E1,-8.085946083E0,1.822134495E0,3.556332588E0
2.053331454E1,-7.976474285E0,1.635494232E0,3.730410576E0
2.054331454E1,-7.880761147E0,1.458425403E0,3.756133318E0
2.055331454E1,-7.852047443E0,1.367498159E0,3.780659676E0
2.056331454E1,-7.874779224E0,1.204786181E0,3.676572084E0
